# Data format: "%float(LinearAccelX),%float(LinearAccelY),%float(LinearAccelZ)"
0.18152,14.71868,4.87099
-0.31778,14.64338,4.41661
-0.14203,14.39696,4.33793
0.00716,15.05140,4.81910
-0.03018,14.65196,4.53681
-0.41360,14.55358,4.48215
0.07350,14.65488,4.76389
-0.23125,14.78882,4.43800
-0.49728,14.66515,4.78301
0.08438,14.75069,4.77917
-0.06814,15.05456,5.17127
0.41565,14.46472,5.10518
-0.11075,14.57566,4.76533
0.23897,14.57398,4.84794
0.29153,14.50276,4.30943
-0.19104,14.46765,4.87836
0.07569,14.65471,4.76439
-0.06740,14.56713,4.78919
-0.26016,14.69109,5.08694
0.02981,14.45837,4.77870
-0.29815,14.71528,4.95697
-0.08541,14.71934,4.45961
0.18486,14.90899,4.96551
-0.22993,14.55454,4.98150
0.38648,14.74006,4.94991
0.01670,14.58160,4.95285
0.11183,14.59752,4.78306
-0.39402,14.50835,4.43668
-0.18133,14.56238,4.89704
0.13610,14.56962,4.62576
-0.01291,14.71736,5.06066
-0.14229,14.41106,4.56625
-0.14944,14.15901,4.59434
0.05202,14.35029,4.50010
0.05090,14.93007,4.60935
-0.13320,14.49078,4.68910
-0.24894,14.64303,4.75131
0.01524,14.65756,4.78857
-0.32308,14.81843,4.95270
0.31876,14.85125,4.92254
-0.22403,14.45824,4.63948
0.05083,14.56869,4.69176
0.29397,14.78333,4.73608
-0.22530,14.78621,4.44760
-0.44395,14.34171,4.90177
-0.04299,14.33230,4.67675
0.40678,14.48948,4.94305
0.24204,14.11506,4.59171
0.07345,14.63503,4.88336
-0.06409,14.92413,4.72144
0.08219,14.52694,4.93342
0.19606,14.53078,4.82859
-0.08363,14.46728,5.11531
-0.23254,14.62869,4.82335
-0.08161,14.24764,4.92792
0.40428,14.64564,4.90006
0.31884,14.63047,4.73902
0.33380,14.71095,4.53092
-0.18136,13.90089,4.67154
-0.09431,14.44869,4.60364
0.30604,14.36235,4.87411
0.04200,14.34769,4.83714
-0.04020,14.50503,4.52492
-0.13940,14.47285,4.80240
0.05358,14.77232,4.65785
-0.33930,14.34475,5.12789
0.01962,14.37550,4.99457
-0.00021,14.65272,4.50553
0.29671,14.65834,4.89614
0.18744,14.60737,4.66257
-0.00623,14.60464,4.49846
0.07436,14.73009,5.22931
0.16353,14.33779,5.13061
-0.08591,14.79529,4.92335
0.22281,14.58222,4.79539
-0.23513,14.59627,4.71035
-0.00800,14.69868,4.84776
0.16273,14.38271,4.52130
0.32632,14.66189,4.52740
0.05731,14.30204,4.79262
0.14686,14.69371,4.76778
-0.02851,14.25496,4.51716
-0.20753,13.98988,5.06599
0.18751,14.71675,4.90721
-0.16005,14.89075,4.67461
0.22078,14.78492,4.76488
0.03408,14.97088,4.34264
0.18082,14.30810,4.97925
0.16083,14.61732,4.60537
-0.15100,14.62580,4.76966
-0.08091,14.20007,5.21690
-0.13483,14.40938,4.87035
0.10501,14.78031,4.87196
0.05177,14.30061,4.79725
0.03008,14.53224,4.91999
0.37294,14.41957,4.76383
-0.11144,14.58556,4.67835
0.15311,14.60054,4.71477
-0.01828,14.46101,4.77393
0.35726,14.69937,4.89340
-0.21911,14.62978,4.78995
0.28738,15.15668,4.56170
-0.03080,14.61616,5.06200
0.02890,14.50075,4.80423
-0.05459,14.65807,4.49268
-0.28606,14.66539,4.92549
-0.42870,14.51458,4.71920
0.24076,14.81990,4.84020
-0.30345,14.25430,4.70721
-0.12893,14.62963,4.72786
-0.06821,15.00093,4.85352
0.23007,14.62899,4.47955
0.00021,14.38542,4.60882
-0.41973,14.40633,4.76973
-0.28436,14.24188,4.77297
-0.44776,14.38603,4.91982
-0.08704,14.15180,5.21027
0.16563,14.36788,4.92293
0.21789,14.78421,4.76736
0.03593,14.58033,4.92707
0.13088,14.62817,4.87238
-0.10584,14.96213,4.49267
0.01949,14.79643,4.82747
-0.06141,14.75157,5.17066
0.14427,14.56780,4.93059
-0.25533,14.29391,4.73792
-0.06714,14.67223,5.04709
-0.00140,14.21286,4.75961
-0.06724,14.64056,4.93191
-0.26427,14.73066,4.49463
-0.51465,14.68703,4.63154
0.06805,14.86772,4.97329
0.13272,14.34509,4.45529
-0.40312,14.94170,4.83095
0.21323,14.76718,4.87740
0.19374,14.32433,4.54424
-0.03263,14.77149,5.02182
-0.12245,14.73992,4.96893
0.23632,14.34760,4.68273
0.11434,14.84370,4.77467
0.34474,14.79019,4.95420
-0.01664,14.60090,4.51140
-0.07749,14.26101,4.50169
-0.22447,15.06703,5.17050
-0.12487,15.09960,4.89289
0.47008,14.73329,4.90937
-0.27785,14.13207,4.82821
-0.39462,14.22107,4.65961
-0.12618,14.97289,4.43279
0.02357,14.87440,4.95546
0.03091,15.09484,4.81265
-0.12951,14.69074,4.96524
-0.18724,14.55519,4.91960
-0.33012,14.40442,4.71340
0.01919,14.82628,4.94844
0.20229,14.30955,4.94487
0.24433,14.69317,5.00518
0.06858,15.00673,4.71376
-0.14122,13.96693,4.83360
0.22085,14.26544,4.89552
-0.06082,14.40379,4.52798
-0.07300,14.55874,4.81628
-0.15927,14.43423,5.03654
-0.18098,14.57115,4.81322
0.02255,14.63814,4.87707
-0.08388,14.39962,4.57080
-0.50126,14.62454,4.69680
0.29345,14.34063,4.99918
-0.15430,14.38733,4.69854
0.32987,14.61310,4.82146
0.05992,14.55026,4.77739
-0.10185,14.44333,4.62142
0.25800,14.56921,4.83400
0.41881,14.22106,4.72208
-0.00563,14.28854,5.22177
0.16441,14.33344,4.81659
0.16927,14.38132,4.82438
-0.07713,14.32239,4.73820
0.17667,14.24144,4.75959
-0.16500,14.91848,4.80276
-0.14687,14.41965,4.48445
0.10910,14.49646,5.08255
0.10002,14.54158,4.80165
0.08202,14.64858,5.08234
-0.27505,14.36645,4.91253
-0.24491,14.90512,5.26083
-0.00907,14.45949,4.45188
-0.05130,14.89109,4.58218
-0.19759,14.45825,4.90779
-0.15366,14.16763,4.51184
-0.47341,14.25279,4.51008
0.04204,14.73486,4.56257
0.15064,14.75397,4.68117
-0.05782,14.67052,4.72528
0.31217,14.86083,4.83737
-0.07692,14.68274,4.66029
-0.20147,14.94313,4.67213
0.31952,15.11278,4.81023
0.05642,14.37729,4.92915
0.38360,14.54429,4.90316
0.20512,14.65388,4.64649
0.15131,14.48827,5.10521
0.03346,14.48281,4.59003
-0.53890,14.74347,4.91334
0.41968,14.37889,5.29883
-0.37291,14.05151,4.77108
-0.25755,14.65174,4.66799
0.33894,14.34900,4.91359
0.00539,14.43147,4.62271
-0.20079,14.58378,4.74680
0.00000,14.66674,5.03147
0.36885,15.09164,4.60183
-0.01244,14.61923,5.35032
-0.77734,14.50043,4.74358
-0.25214,14.23120,4.50567
-0.21824,14.78606,4.74691
0.17081,14.61806,4.27540
0.12047,14.29667,4.77671
-0.19696,14.13104,4.47112
-0.54733,13.97759,5.38203
0.25901,14.76026,4.89583
-0.02674,15.00854,5.09779
-0.02533,14.33394,4.64206
-0.13485,14.64340,4.33005
-0.14489,14.92514,5.07940
-0.62488,14.26031,4.58166
-0.03112,14.56861,5.05329
0.27257,14.35386,4.30517
0.10253,15.15624,5.01580
-0.09894,14.86978,4.76428
0.30801,14.54880,4.62337
0.13056,14.75303,4.71307
-0.10007,14.44602,4.61246
0.40525,14.50358,4.84271
-0.29177,14.60148,5.02487
-0.12354,14.44212,4.65448
-0.40805,15.11396,5.00887
-0.21108,14.61455,4.56673
-0.27945,14.41451,4.62210
0.04206,14.84775,5.12226
0.18012,14.57312,4.55629
0.04988,14.75391,4.44533
0.03886,14.61195,5.04240
-0.03104,14.31711,4.75150
-0.14142,14.54892,4.93633
-0.21053,14.70925,4.91326
0.40707,14.67588,4.69271
0.21607,14.51690,4.57173
-0.08144,14.92017,5.06210
-0.14024,14.32934,4.74898
-0.02073,14.05260,4.84505
-0.17445,14.62132,4.81360
-0.06781,14.85997,5.11977
0.12450,14.76790,4.93766
-0.19233,14.30488,4.94187
0.08381,14.55657,4.72751
0.09027,14.69943,5.08086
0.07404,14.52382,4.94339
-0.26197,14.04146,4.76693
-0.02496,14.56869,4.72538
0.02265,14.60837,4.75583
-0.34475,14.65369,4.72416
0.17058,14.32043,4.58621
-0.18145,14.43201,5.07348
-0.06376,14.81261,4.78280
-0.19201,14.77391,4.48432
-0.14488,14.73576,5.01179
0.05034,14.87952,4.90953
0.17209,14.38338,4.81771
0.31011,14.48605,5.01693
0.05045,14.51898,4.98835
-0.14485,14.42128,4.47889
-0.14486,13.95169,4.93799
-0.04141,14.36097,4.47432
0.25327,14.52267,4.82188
-0.04542,14.87726,4.35420
0.27956,14.37040,4.82266
-0.26352,14.79245,4.73012
0.07807,14.93074,4.87717
-0.04638,14.79917,4.85183
-0.02726,14.39498,4.87973
0.01631,15.34304,4.82685
-0.12748,14.29906,4.92724
0.19622,14.55903,4.62778
0.08350,14.58659,4.84799
0.18666,14.52627,4.84345
-0.38788,14.66060,4.70571
-0.00021,14.32040,4.38436
-0.07987,14.76194,5.11124
-0.06761,14.18352,4.67016
-0.28082,14.50709,4.97509
-0.26577,14.58776,4.76716
-0.03054,14.47285,5.33506
-0.39985,14.39187,4.84207
0.26898,14.66566,4.84731
0.12575,14.54643,4.75659
0.09322,14.14934,5.09243
-0.20734,14.72335,4.81270
0.08506,14.25753,5.04228
0.02353,14.66988,4.99187
-0.17836,14.77532,4.77789
-0.00057,14.63415,4.91932
0.01216,14.54226,4.86192
-0.07746,14.15043,4.88681
-0.13358,14.21889,4.80637
0.13084,14.65727,4.99563
-0.03698,14.47081,4.71676
-0.11071,14.22286,4.76417
0.25295,14.69403,4.67539
-0.17719,14.61880,4.82166
0.05066,14.29815,4.80510
-0.15840,14.18307,4.73408
0.13330,14.50089,5.03895
0.11911,14.10616,4.71303
0.10913,14.07331,4.92885
-0.12113,14.58166,5.01819
0.01519,14.55823,4.75546
0.10651,14.73068,4.54295
-0.02392,14.44155,4.89164
-0.23687,14.37306,5.15942
0.17397,14.42908,4.83255
0.05331,14.67426,4.62147
0.04036,14.37414,4.64174
-0.45379,14.08369,4.61982
0.20735,14.10538,4.65318
-0.33989,14.96593,4.93677
-0.33942,14.15056,4.74660
0.26893,14.50806,4.89470
0.05462,14.76844,4.96897
0.09289,14.42989,4.56554
-0.09762,14.22454,5.05617
-0.09192,14.77383,4.72029
-0.14309,14.81228,5.14390
-0.67855,14.63967,4.71780
-0.10194,14.67783,4.70552
0.12180,14.40378,5.02761
0.20570,14.74765,4.99537
0.23141,14.53251,4.76476
-0.25092,14.82447,5.14145
-0.21811,14.36001,5.22686
0.30564,14.38862,4.67980
-0.12702,14.53258,5.01413
0.58075,14.53106,4.84656
0.08586,14.60106,4.74650
0.16663,14.63125,5.13055
-0.24682,14.41752,4.88058
-0.00160,14.80521,4.77376
-0.09134,14.77369,4.72078
-0.05145,14.95303,4.81673
-0.36822,14.06657,4.66759
-0.20133,14.61321,4.86899
-0.20206,14.50362,5.25026
-0.06942,14.57349,4.71390
-0.13807,14.76526,4.80662
-0.36553,14.69409,4.78553
-0.14282,13.93359,4.72382
-0.55412,14.26935,5.08838
0.10933,14.49523,5.08631
-0.13352,14.35820,4.54618
-0.29123,14.58157,4.81643
-0.22170,14.87613,5.10770
-0.16695,14.28963,4.68927
0.16186,14.55116,5.00948
0.15517,14.83209,4.80866
-0.22461,14.21699,4.87473
0.31444,14.38935,4.35090
-0.46254,14.04981,4.83883
0.49673,14.60999,5.03360
0.11062,15.12259,5.20471
-0.09703,14.33325,4.67767
0.17656,14.30321,4.99440
-0.32437,14.29357,4.77192
-0.00451,14.63190,4.92647
-0.17900,14.22498,4.79028
0.04934,14.35917,5.04222
0.39934,14.46734,4.74289
-0.03882,14.56325,5.06971
-0.20916,14.06337,5.20629
-0.02756,14.69094,5.19935
-0.07874,14.35243,4.85831
-0.05839,14.01133,5.11652
-0.15241,14.91979,5.09591
-0.08492,14.63350,4.65702
0.15412,14.50333,5.00160
-0.10260,14.74044,4.93767
-0.37620,13.87734,4.92631
-0.03745,14.20351,5.14563
-0.13022,14.82969,4.70611
-0.04299,14.62543,4.67926
-0.06269,14.52830,4.99479
-0.04999,14.01309,4.78425
0.12589,14.13779,4.50142
-0.21796,14.61051,4.58020
0.00364,14.60221,4.47850
-0.02383,14.67626,4.97491
0.27332,14.22676,5.09686
0.02087,14.48023,4.92523
-0.30750,14.67339,4.87379
0.04520,14.59385,4.50176
0.50178,14.47056,4.96771
-0.09380,14.41298,4.79968
-0.29403,14.22119,4.89406
0.15576,14.73919,5.08133
0.05003,14.56386,5.00549
0.00026,14.77478,5.27895
-0.23583,14.35685,4.93944
-0.13597,14.42125,4.77680
0.14900,14.55018,5.33948
0.28756,14.73108,5.04142
-0.21358,14.68988,4.70343
0.03966,14.15401,4.45665
-0.40119,14.40603,4.74097
-0.23306,14.62401,5.13513
0.08369,14.24036,4.82550
-0.14300,14.65552,5.18821
0.13434,14.54731,5.05136
0.16929,14.75691,4.64272
-0.31346,14.62535,4.86647
0.03610,14.62396,4.94830
-0.23621,14.32521,4.82444
-0.53825,14.75807,4.81098
-0.10166,14.94435,4.90330
0.13603,14.65653,4.67134
-0.16887,14.77568,5.07402
0.28435,14.32209,5.11368
-0.08560,14.63315,4.65819
-0.39729,14.60979,4.70733
-0.17913,14.64817,4.94388
-0.19634,14.40967,4.57549
0.09066,14.31907,4.95075
-0.44401,14.20944,4.75560
0.03864,14.73274,4.56989
0.25149,14.75456,4.91452
0.17937,14.63251,5.42347
0.07858,14.55175,4.74342
0.02217,14.58869,4.54786
-0.18520,14.59955,4.93840
0.02595,14.91875,4.97456
0.10709,14.60364,4.70907
0.02284,14.68301,4.89455
-0.16959,13.89672,4.65490
-0.11854,15.09682,4.57568
0.14034,14.60907,4.33593
-0.06948,14.38421,4.64630
-0.12692,14.73474,4.98522
0.41862,14.59504,4.54621
0.20293,14.29082,4.73331
0.08514,14.34847,4.44936
0.36078,14.52240,4.73151
-0.15902,14.52508,4.44385
-0.07059,14.38391,4.64729
0.40512,14.71825,4.71949
-0.12213,13.54395,4.64948
-0.00198,14.61538,4.70809
-0.07763,14.16325,4.79021
-0.31997,14.48111,4.51876
-0.00104,14.67826,4.93908
-0.31667,14.24674,5.05765
0.21305,14.35512,4.63347
0.07394,14.56601,4.96908
0.07308,14.50312,4.73810
-0.16179,14.60307,4.89775
-0.14312,14.59066,4.96320
-0.20476,14.15641,4.60677
-0.36806,14.72365,4.90694
-0.26307,14.41281,4.59848
-0.20601,14.90878,4.56636
-0.03721,14.76614,5.03858
-0.12659,14.37427,5.06316
0.06196,14.32911,5.21913
-0.01617,14.56626,5.03057
-0.03043,14.59512,4.85731
0.46354,14.49385,4.84155
-0.33494,14.43219,4.84055
-0.55639,14.44046,4.94219
-0.09068,14.31854,5.07694
-0.10740,14.56650,5.09208
-0.15765,14.79265,4.63798
0.03425,14.62272,4.95226
-0.34162,14.77620,4.87028
0.23172,14.54747,4.66204
-0.05988,14.21433,5.08481
0.28321,14.60355,4.58502
-0.01530,15.33513,4.88222
0.43550,14.67754,4.95662
0.19507,13.88271,4.80287
0.37548,14.05545,4.52788
0.18352,14.57043,4.86347
-0.42157,14.87164,4.94906
0.28935,14.32220,4.78699
0.13702,14.27974,4.53066
0.33968,15.02103,5.05036
0.22261,14.65533,4.61325
-0.27053,14.03573,4.78448
-0.01528,14.09603,4.54020
0.03884,14.63854,4.84650
0.06708,14.62765,4.58085
0.04436,14.79603,4.47361
0.06018,14.97142,4.61150
-0.41928,14.65215,4.76196
-0.25116,14.83866,5.04043
0.14499,14.46892,4.27232
-0.14467,14.23030,5.04074
0.11334,14.52641,4.87619
0.10547,15.08958,5.09416
0.02482,14.69913,4.78784
-0.02201,14.84730,3.88003
0.08608,14.25521,4.72285
-0.18108,14.85111,4.91254
-0.20848,14.43877,5.02483
0.01900,14.51020,5.04540
-0.58403,14.67048,4.44630
0.22241,14.62389,4.49770
-0.28143,14.26889,4.57587
-0.54583,14.52093,5.68520
-0.25842,14.06915,4.56747
-0.40670,13.82386,4.96540
-0.53229,14.41307,4.78445
-0.25969,14.68028,4.79311
-0.23728,14.54322,5.01636
-0.14763,14.54325,4.95399
-0.66360,14.38990,4.70847
-0.32756,14.87208,4.88572
0.08772,14.47465,4.91007
-0.25155,14.57195,4.84349
0.04168,14.21586,4.69126
0.08803,14.53785,5.14015
-0.06188,13.80634,5.15402
0.24207,13.65575,4.63598
0.42682,14.69157,4.55939
0.12853,14.67091,4.89683
0.64318,14.33819,4.75824
0.18010,13.91194,4.62848
-0.04924,14.51476,5.06376
0.84026,14.81247,5.08233
0.22416,15.12750,4.77112
0.69327,14.45764,4.91114
-0.17311,14.65045,5.23342
-0.23581,14.15298,4.64665
0.09306,15.37128,4.89114
0.25828,14.50670,4.89957
-0.34662,14.87057,5.21629
0.46360,14.29140,4.54543
0.78378,14.34745,4.28240
-0.02978,14.62752,4.64345
-0.12105,13.95319,5.19947
0.97823,14.89951,5.06095
-0.06687,14.15093,4.85528
-0.26055,14.72768,3.85255
0.46045,15.45108,5.38800
0.09526,14.47674,4.25122
0.31956,14.59465,4.61048
0.26712,14.46039,5.18367
-0.51532,14.58872,4.59442
-0.08868,14.28735,4.63419
0.25060,14.75449,4.58915
-0.02585,14.01581,4.41993
0.19611,14.77618,5.12038
0.04560,14.37333,4.94160
-0.12705,14.21728,4.15890
-0.03636,14.70357,4.48051
-0.38403,15.28547,5.12863
-0.02535,14.40781,4.45720
0.01550,14.57213,5.27924
-0.00687,13.87789,4.02274
-0.84285,14.64034,4.80975
-0.52501,14.80600,5.11490
-0.00716,14.59947,5.43713
0.34117,14.55062,4.56087
-0.61184,14.10092,4.60413
-0.53600,14.19267,4.59966
-0.47447,15.09695,4.49782
-0.12340,14.79813,4.88811
-0.27652,14.58306,4.78189
-0.52712,14.11573,4.76564
-0.58635,14.34039,4.64285
-0.55516,14.62798,4.68870
-0.35470,14.81989,4.59447
-0.03634,14.10760,4.47752
0.00777,14.68006,5.23009
-0.50165,14.29251,4.57297
0.05073,13.90349,4.45020
-0.03223,14.57882,4.63842
-0.35627,14.28687,4.82206
0.20962,14.71583,5.17823
0.02907,14.62146,4.95625
0.07135,14.66001,4.36745
-0.10196,15.28845,5.22964
-0.01553,14.56672,4.70284
-0.09839,14.36401,4.46911
-0.17427,14.78992,4.97287
0.12416,14.48183,4.82868
-0.03551,14.61059,4.75271
-0.14024,14.52963,5.02289
-0.06164,14.87245,4.37152
-0.32669,13.93238,4.52508
-0.08422,14.57103,4.72175
0.02236,14.38619,4.87475
0.24692,14.67681,5.08380
0.27735,14.93303,5.01398
0.27178,14.46181,4.85315
-0.31733,14.59322,4.42612
-0.19831,14.70837,4.55958
0.39554,14.65668,5.10872
0.30999,14.61025,4.83200
0.37833,14.90486,5.12321
0.20687,14.81170,4.57068
-0.17447,14.94841,4.59642
-0.12218,14.50317,4.86212
0.25534,14.52260,4.79398
0.43531,14.64871,5.13103
-0.00779,14.74301,4.83777
-0.31172,14.56472,5.54770
0.16522,14.13098,4.81752
-0.19992,14.41173,4.86533
-0.10889,14.11448,5.11139
0.10680,14.48196,5.15491
0.09963,14.26145,5.29747
-0.29283,14.63117,5.11466
0.22431,13.93847,5.05404
0.31145,14.69079,4.95170
0.45961,14.46616,5.01286
0.30582,14.18789,4.67602
-0.09347,14.43146,4.98226
-0.06811,14.57675,4.67389
-0.17425,14.35461,5.21013
0.06805,14.50691,5.02338
0.11999,14.53151,4.83095
-0.07844,14.96705,5.04306
-0.03081,14.05038,5.14870
-0.36626,14.42968,4.55014
-0.09799,14.83799,5.24425
-0.18342,14.30497,4.58430
-0.16073,14.66937,4.46444
-0.24345,14.38830,4.72756
0.03934,14.75148,4.75211
-0.17539,13.56888,4.51760
-0.25532,14.05649,4.63292
-0.09260,14.75926,4.79263
-1.20202,15.97426,3.84363
-0.50209,14.27949,4.96557
0.12350,15.29811,4.06653
-1.32706,14.77754,5.84414
0.38276,15.18722,4.59162
-0.21066,13.53046,4.15677
-0.17913,15.63739,5.27639
-0.74005,13.84510,4.73367
-0.02909,16.36923,5.26202
0.58737,14.34453,4.11941
-0.31772,14.93859,5.07487
0.10276,14.52627,4.87685
-0.30863,14.81409,4.28262
0.01302,14.49461,4.82405
-0.65257,14.45614,4.89760
-0.18656,14.28644,4.07589
0.13556,14.90825,5.26893
-0.34245,13.85193,4.73151
-0.02426,14.45625,4.46306
-0.05580,14.62337,4.68599
-0.48446,14.72040,4.68146
-0.22630,14.57797,5.09125
-0.18737,14.17676,4.45681
-0.22359,14.35888,4.90291
-0.19298,14.58366,4.71754
-0.00500,14.60126,5.10525
-0.14340,14.43565,4.67532
-0.57120,14.62726,5.01637
0.21172,14.09048,4.72736
-0.33566,14.10413,4.70378
-0.30362,14.06297,4.94215
-0.23458,14.38907,5.34861
-0.04354,14.56335,4.74279
-0.15758,14.49633,4.61629
0.22376,14.48545,5.05223
0.34071,14.86639,4.76240
-0.29399,14.69213,4.72852
-0.05338,14.73459,4.92325
0.25563,14.52254,4.79417
-0.40388,14.64153,4.49428
0.04115,14.35949,4.71484
-0.33371,14.27845,5.17122
-0.08142,14.52665,4.99965
-0.34429,14.65281,4.69653
-0.00575,14.55575,4.76359
-0.01590,14.06807,4.71050
0.28208,14.66974,5.10348
-0.06374,14.09161,4.90988
-0.12488,14.14382,4.93655
0.10609,14.59204,4.77240
0.24093,14.39631,4.66001
0.08216,14.58808,4.81437
-0.11929,14.72504,4.71504
0.19486,15.07877,5.09316
0.33832,14.35137,4.87821
-0.00191,14.77733,4.61745
0.02851,14.56365,5.00631
0.06213,14.56913,4.63284
-0.02230,14.68023,4.93275
0.05722,14.64753,5.08590
-0.02259,14.68038,4.93229
-0.43921,14.02664,4.63578
-0.11677,14.72720,5.33220
-0.30169,14.58474,5.10223
0.10018,14.12174,4.60847
0.08658,14.18201,4.55068
-0.03779,14.56845,5.02366
0.13574,14.94398,5.04483
-0.26651,14.79435,4.69348
-0.06768,14.39019,4.59727
-0.12281,14.55336,4.86238
0.15928,14.94821,5.00199
0.30777,14.69211,4.94777
0.11198,14.51662,4.93390
-0.22376,14.48905,5.02438
-0.05183,14.23701,4.92781
0.12909,14.77005,4.57527
-0.08638,14.52887,4.99265
-0.24925,14.34392,5.33256
0.14092,14.56880,4.89864
-0.04417,14.42618,4.66907
0.00052,14.62216,4.65669
0.10043,14.81271,4.95591
0.01546,14.82908,4.91022
-0.09007,14.62221,4.71846
-0.21880,14.56889,5.14623
-0.09201,14.51279,5.09943
-0.06646,14.62634,4.67593
-0.02713,14.86897,5.00218
-0.37835,14.60290,4.72383
-0.08997,14.68542,4.94880
-0.09928,15.09088,4.58998
-0.04913,14.11280,5.08457
-0.17207,14.48259,4.71481
-1.01004,13.04669,3.04286
-0.16375,14.31449,6.72433
-0.13349,14.47280,4.11830
0.14854,13.97435,4.56444
-0.35219,14.54537,5.07039
-0.47405,14.64966,5.12400
0.27224,14.96773,4.16857
-0.49332,14.40962,4.13557
0.19936,14.94073,5.02270
-0.32393,14.47155,4.57303
-0.05794,14.56471,4.11355
-0.41396,14.44002,4.51953
-0.15995,14.42243,4.77225
-0.27669,14.57445,4.83408
-0.08404,14.45109,4.53729
0.13560,14.36504,4.93268
0.10643,14.24991,4.73675
0.18484,14.54592,4.69704
0.01932,14.18843,5.18730
0.03883,14.70911,5.02408
-0.16210,14.39102,4.65633
0.09612,14.78182,4.83849
0.28974,14.36145,4.84974
-0.11005,14.57370,5.03954
-0.10442,14.19829,4.89404
0.00061,14.31070,4.73913
0.11416,14.47279,5.21110
-0.12255,14.71204,4.48438
0.19537,14.51794,4.86800
0.20116,14.14249,4.72265
0.02024,14.62899,5.23020
0.14813,14.97958,4.49337
-0.07222,14.33012,4.98129
-0.16219,14.26703,4.81228
-0.05242,14.85076,4.81805
0.08258,14.68652,4.82144
-0.09421,14.43553,4.64217
-0.58353,14.61614,4.77849
-0.26403,14.95497,4.93360
0.05929,14.68262,4.86322
0.46998,14.30100,5.11184
-0.03622,14.50841,4.45595
-0.22102,14.58667,5.03387
-0.21758,14.36743,4.84564
-0.22896,14.75824,5.21369
0.15719,14.63793,5.08119
0.13830,14.55539,4.67000
0.18561,14.62677,4.81580
-0.29865,14.82371,4.84446
-0.10170,14.18390,4.66829
-0.06625,14.94309,4.87390
0.14301,14.63495,4.79286
-0.10958,14.08969,5.27281
-0.21138,14.61953,4.81793
-0.13459,14.74304,4.92860
-0.29997,14.25928,4.95760
0.00288,14.71983,4.66593
-0.32590,14.08280,5.15012
-0.10059,14.90645,5.13126
-0.22961,14.60049,4.63634
-0.20871,14.88716,5.01238
-0.13990,14.72694,5.03552
-0.12335,14.51062,5.13585
-0.44965,15.00247,5.39365
0.11222,14.22112,4.28523
-0.38052,14.62096,4.60984
0.00765,14.83110,4.90372
-0.15688,13.98709,5.01058
-0.19702,14.26265,5.18292
0.50859,14.32306,4.62936
-0.11330,14.54340,4.92013
0.10610,14.26789,4.62387
0.00965,14.67490,4.94656
-0.36019,14.48408,4.83333
0.16851,14.38825,4.44676
0.00276,13.96760,4.70664
0.16176,14.76373,4.59208
0.29853,14.83497,4.67656
-0.11832,14.27549,4.72650
0.23026,14.27453,4.80949
-0.54791,14.66957,4.41159
0.04861,14.07034,4.96851
-0.29114,14.55921,4.93767
-0.30344,14.13280,4.49646
0.13419,14.58692,4.78567
0.02045,14.58278,4.89000
-0.00605,14.60855,4.42817
-0.06951,14.58280,4.95176
0.13398,14.58701,4.78538
0.01271,14.33080,4.91732
0.21097,14.25547,4.62800
0.15631,14.95157,4.66445
-0.08042,14.42400,4.70500
-0.30482,14.22803,4.84091
0.17055,14.49975,4.68393
0.11509,14.36594,5.25755
0.02265,14.36418,4.69965
0.15758,14.23156,4.81855
0.12948,14.77556,4.85540
-0.07351,14.47451,5.32984
-0.19494,14.38906,4.69136
-0.20813,14.48114,4.74808
-0.03908,14.51191,5.06996
-0.12345,14.43344,4.67784
0.15178,14.18454,4.80805
-0.33820,14.49174,5.40500
-0.30859,14.41742,4.90833
-0.07631,14.56864,5.05272
0.33594,14.68826,4.95789
0.18588,14.31682,4.89404
0.04045,14.32197,4.64425
-0.03924,14.18426,5.26049
-0.24621,14.57012,4.84401
-0.35898,14.14253,4.79566
-0.23047,14.65088,4.63540
-0.20186,14.76617,4.83133
0.06571,14.32837,5.22057
-0.31013,14.65178,4.36662
-0.15172,14.61818,4.78930
-0.10659,14.45393,4.85496
0.05201,14.38865,5.16248
-0.48758,14.59069,4.87880
-0.32639,14.66627,4.92020
-0.07227,14.55406,4.82723
0.02267,14.60207,4.77272
-0.20796,14.75006,4.93843
-0.09603,14.48678,4.63862
-0.08240,14.09796,4.89005
-0.06489,14.44599,4.87724
0.35517,14.48891,4.94880
-0.18735,14.61340,5.16177
-0.29776,14.38999,5.07789
0.00945,14.30224,4.79230
0.02395,14.83803,4.85209
0.03257,14.63483,4.55667
-0.30282,14.31031,4.95520
-0.02073,14.64208,4.86442
-0.20324,14.76668,4.82961
0.15610,14.86159,4.92832
-0.08287,14.42673,4.69597
0.03569,14.54206,4.82995
-0.31121,14.74719,4.71097
-0.16290,14.55440,4.88797
0.42163,14.71862,4.38929
0.02754,14.58690,4.54901
-0.00409,14.36249,4.73429
0.06675,14.40642,4.72224
0.14295,14.52995,4.83312
-0.19053,14.64325,4.65651
-0.16894,14.44322,4.64940
0.32668,14.97001,4.75345
-0.32797,14.60360,4.68731
-0.05793,14.30662,4.81078
-0.37036,14.61177,4.66426
-0.21469,14.67099,4.81370
0.04637,14.87418,4.92366
-0.24622,14.71178,4.57500
0.22487,14.57500,4.48957
-0.01596,14.59531,4.52517
0.05167,14.89026,4.81657
0.08567,14.69337,5.09800
-0.12372,14.18395,4.36921
-0.13096,14.65446,4.86036
-0.43052,14.96279,5.00222
0.15472,14.50156,5.00589
0.24986,14.51794,4.83604
-0.32041,14.40038,4.39179
0.08530,14.66193,4.98199
0.00434,14.16206,5.05646
-0.12602,14.63954,4.63577
0.02415,14.65077,4.77787
-0.31747,14.87206,4.55120
-0.07927,14.71100,4.78167
-0.12600,14.34273,4.94437
-0.01306,14.73869,4.87729
-0.10430,14.07936,4.70663
0.06297,14.23683,5.49050
-0.37832,14.62761,4.88567
0.28484,14.58911,5.31102
-0.10855,14.65935,4.81528
0.27159,14.85108,4.59850
0.16406,14.17448,4.86683
0.23098,14.79807,4.96455
-0.33640,15.31053,5.25624
-0.37703,14.17248,4.61750
-0.06711,14.71463,5.06872
-0.07417,14.39925,4.86577
-0.05332,14.55954,4.78019
0.15011,14.33012,5.15367
-0.11030,15.08327,4.96661
-0.21542,14.93958,5.00523
-0.00188,15.07119,4.96975
-0.32913,14.87209,4.87899
0.21084,14.57518,4.81703
-0.11983,14.62745,5.02878
-0.38393,14.58049,4.87542
0.06849,14.45591,4.72484
0.14221,14.37543,4.87099
0.24921,14.78701,5.02633
-0.03405,14.12455,4.69053
0.27987,14.35212,4.60815
-0.43937,14.55407,4.44726
-0.01726,14.53602,4.90811
-0.12573,14.58004,5.01953
0.01694,14.99630,4.80215
-0.17658,14.36534,4.52053
-0.09807,14.36443,4.78986
0.12412,14.32441,4.57436
0.00667,14.57172,4.98121
-0.17222,14.14819,4.95235
-0.28343,14.61331,4.59699
-0.02622,14.64148,4.23923
0.20258,14.32342,4.84398
-0.20152,14.09598,4.98776
-0.02991,14.59603,4.85072
-0.38050,14.06443,4.99577
-0.45141,14.28557,4.58364
-0.02154,14.78458,4.59255
-0.08828,14.45787,4.18577
-0.03801,15.06442,4.72191
-0.15013,14.27661,4.75193
-0.25066,14.50927,4.60486
-0.17438,14.60099,4.60093
0.04905,14.16907,4.34838
-0.29609,13.95053,4.07675
0.23836,14.35999,4.58600
-0.15863,14.05619,4.89533
-0.13335,14.62455,4.73921
-0.14149,14.37234,4.76756
-0.05505,14.56003,4.77855
-0.06910,14.71550,5.06599
-0.11914,14.80017,4.87700
0.02448,14.46434,4.70087
0.12244,14.75052,5.34592
-0.10917,14.53608,4.96974
-0.30918,14.60944,4.63862
-0.11592,14.94358,5.22941
-0.43848,14.46169,4.71963
0.10750,14.51190,4.97621
-0.19729,14.74060,4.99477
-0.04708,14.38930,4.59559
0.00454,14.54062,4.86396
0.25238,14.47554,5.10993
0.06302,14.61304,4.67860
-0.13299,14.46922,4.77949
0.16061,14.86763,5.20822
0.18777,14.65220,4.97794
-0.05264,14.31258,5.09076
0.06957,14.53698,4.84322
-0.24952,14.22988,4.80216
-0.26139,14.55759,4.93936
0.10637,14.77759,4.54978
-0.14832,14.59326,4.95078
-0.39432,14.56587,4.97767
-0.19962,14.41044,4.56622
-0.01237,14.03720,4.91770
0.09695,14.94942,4.72918
-0.02751,14.52104,5.01191
-0.12655,14.33013,4.71205
-0.13580,14.86205,4.81338
-0.16364,14.74652,4.61775
-0.12945,14.84634,4.59098
0.18583,14.32150,4.55121
-0.17526,14.68200,4.71910
-0.00821,14.80819,5.38766
0.21334,14.50069,4.97684
0.16170,14.31764,4.59298
-0.18847,14.38205,4.73927
-0.24854,14.04223,4.72904
0.15009,14.94461,5.04078
-0.19442,14.39757,4.96234
0.10717,14.65347,4.70722
-0.07090,14.52920,4.98877
-0.14866,14.46649,4.48895
0.09084,14.50958,4.68465
-0.34500,14.68567,5.13004
-0.03555,14.17394,4.69341
0.29211,14.27775,4.43911
-1.16707,13.83296,4.47173
0.47552,15.37696,4.59267
0.24905,14.88435,5.03746
-1.12297,14.29620,4.65493
1.87452,14.63963,5.48602
-1.08224,14.61914,5.10331
-0.44783,14.10231,4.79444
1.08639,15.62951,5.41650
-0.81130,14.55265,4.06948
0.49069,13.88937,4.23881
0.07879,14.96459,4.95358
-1.37165,13.51664,4.72200
-0.19090,15.38625,4.66934
0.56907,14.51660,4.62401
-0.46082,13.57996,4.00789
-0.36624,14.28998,4.80525
-0.14424,13.72068,5.43714
-0.27151,16.14212,4.97655
-0.49230,14.04750,4.53863
0.49139,14.03286,4.59137
0.13962,15.83734,4.73356
-0.61948,14.33941,4.66433
1.20713,15.60584,5.48492
-0.19618,14.10205,4.93855
-0.41293,14.12359,4.31185
0.58004,15.91603,4.88061
-0.67707,14.01531,4.54736
0.08089,14.94950,4.72921
0.04801,14.12926,4.91292
-0.68966,13.74455,4.06318
-0.19923,14.39813,4.63132
0.09943,14.18517,4.83637
0.17417,14.70090,4.98383
0.08608,14.24562,4.77748
-0.07837,14.26506,5.08163
-0.25221,15.50511,5.21473
-0.24985,15.14238,4.67352
-0.08901,14.85775,4.79443
0.10832,14.51706,4.93090
-0.43381,14.27893,4.59941
0.09947,14.98527,4.80240
-0.29089,14.60226,4.65698
-0.00787,14.21350,4.72488
-0.22901,14.15829,4.59344
-0.40978,13.89097,4.52038
-0.16491,14.87735,5.03647
-0.43439,13.94779,4.17383
-0.05943,14.36171,4.76579
0.25050,14.18133,4.75526
0.17226,14.21395,4.60058
-0.47957,14.88599,5.19582
0.06367,15.18229,4.51958
-0.12039,14.97811,4.67816
0.15320,14.72918,4.81128
0.18321,14.98810,5.35985
-0.35983,14.60689,4.67400
0.03388,14.11057,4.40086
0.09990,14.28136,4.85082
-0.07923,14.31065,4.46881
-0.40572,14.41095,4.68608
0.01848,14.44108,5.15695
0.27973,14.31333,4.84274
0.13275,14.20654,4.35448
-0.42913,14.61092,4.69289
0.10056,15.14521,5.04651
-0.39679,14.71390,5.28414
-0.23505,14.85042,4.93764
-0.52347,14.83103,4.94031
-0.29897,14.13152,4.49392
0.53789,15.26900,4.91197
-0.77547,14.84828,4.68451
-0.19482,14.66737,4.49193
0.10292,15.41047,4.62105
-1.00771,14.42928,4.34331
-0.03544,14.41444,4.72871
-0.54106,14.09116,4.91611
-0.23383,13.85981,4.27992
-0.16167,14.97411,5.04873
-0.43725,14.35944,4.71891
0.12055,14.67800,4.84336
-0.18232,14.84317,4.62930
-0.21340,14.85468,4.89460
0.09234,15.22197,4.87950
0.15989,15.09367,5.01844
-0.43526,14.43908,4.84185
0.06364,15.31302,5.26820
-0.39849,14.11519,4.66316
0.19252,14.83295,5.07147
-0.25193,14.61093,4.57001
-0.16340,14.01464,4.50827
-0.30091,14.24248,4.73343
-0.33843,14.12369,4.24869
0.09874,14.68965,4.77961
-0.83688,14.05244,4.40766
-0.30558,14.72984,5.11558
-0.05333,14.94860,5.45071
0.36371,14.58080,4.97737
-0.40410,14.17873,4.89338
0.10466,15.14895,5.33406
-0.23743,15.16617,5.13932
0.02955,14.72606,4.91196
0.14033,14.74284,4.41250
-0.75742,14.37779,3.86268
-0.02273,15.26585,4.99070
0.06737,14.27778,4.89173
-0.72447,14.77699,4.14636
-0.07942,13.84248,4.59716
-0.22196,15.01032,4.85283
-0.69225,13.59231,4.39028
-0.09144,14.89069,4.57694
0.09205,14.45678,5.31834
-0.47558,13.92811,4.32059
0.35389,14.95668,5.12160
-0.07191,15.07267,5.62206
-1.02318,14.33367,4.32585
0.99754,14.95960,4.98335
-0.52686,14.84737,4.83106
-1.21097,13.12270,3.93369
0.65715,15.26310,5.49603
-1.00152,14.33725,4.28471
-0.24530,14.64313,4.35503
0.94633,15.13611,4.52328
0.16836,14.81281,4.89275
0.24519,15.22290,5.71082
0.86759,15.14859,6.39883
0.02134,13.56534,5.02599
0.52310,15.30009,5.03085
-0.53813,14.29506,4.55113
-0.29534,15.19885,4.32694
-1.04342,14.92779,4.66051
-0.80358,13.71574,4.62381
-0.64541,14.66770,4.46740
-0.45021,13.46316,4.40895
0.13728,13.80175,4.38595
-0.72533,13.44433,4.08029
-0.30992,13.34712,4.42110
-0.61433,13.60818,4.55040
-0.20751,14.55606,4.25270
0.15232,15.58512,3.14938
1.61852,15.87696,3.46340
1.22722,16.19371,5.18952
2.19920,16.79706,6.70761
-0.32697,14.57355,8.02824
0.35376,14.20226,7.08370
1.76860,15.10737,6.68819
-2.14428,14.64867,5.91829
-0.97388,15.16640,5.62626
-2.12563,15.38966,5.94000
-2.60427,12.14036,3.54054
-3.23636,9.94935,1.77943
0.07155,12.18648,0.79768
1.85338,15.21152,3.42682
-0.45806,13.97518,0.84324
1.98123,12.88547,1.07289
3.50454,13.73434,4.12216
2.51992,14.67559,4.48886
1.71501,18.63941,7.00531
0.62216,18.47817,6.87058
-0.59223,15.63797,5.21371
-0.37346,13.99892,7.60626
-2.64340,15.22562,8.95120
-2.16880,16.02598,8.28093
-1.81954,14.78385,8.02992
-1.31929,11.77539,4.36061
-1.14591,11.90234,4.69956
0.19811,12.80493,5.95708
-1.74182,12.74691,3.52732
-0.89910,12.37636,3.41465
0.57573,11.81082,1.89821
0.34245,11.44709,0.26051
0.23656,16.04739,2.05164
-0.04190,17.24836,4.09131
0.64296,16.09236,3.07485
2.48715,16.30990,3.60017
1.75951,16.93505,6.12615
1.38867,18.82508,7.95521
0.83829,17.89623,7.60173
0.70867,14.72176,7.33644
0.50353,13.82350,7.18681
-1.41319,14.05600,5.42137
-2.35961,13.05536,4.83715
-0.80647,13.68996,5.11840
-3.21542,11.55189,3.91488
-2.75046,10.29985,3.66613
0.55915,12.05968,4.44815
-0.20344,11.53088,3.90088
0.28318,13.07990,4.78367
-0.71768,15.57842,6.02053
-0.18467,12.74937,2.77610
0.83827,15.43762,2.99971
-0.87147,17.44994,4.01260
-0.02549,18.52567,4.49591
2.96235,20.42183,5.89869
1.12589,15.46913,4.81973
2.07632,15.19839,4.94958
1.32525,14.60007,5.47461
-0.09215,13.57408,4.10441
0.51733,12.63822,5.22010
1.50585,13.03174,5.20894
-1.75201,12.16181,5.04688
-2.62414,13.24597,4.75376
-3.02907,13.89659,4.68992
-1.89404,12.58578,4.03464
-1.76783,12.36447,5.04848
-0.76160,12.78953,4.82177
-0.00371,15.49479,5.11910
0.85717,16.51137,5.65718
0.62872,17.31630,5.43176
1.19381,17.06319,4.43665
0.22434,16.43835,4.32640
0.39046,16.58121,4.88880
-0.21185,16.11902,5.39889
0.11180,15.16656,4.59256
0.73522,14.82047,4.47121
0.97206,13.23499,4.91360
0.23480,13.74925,4.98737
-0.15608,12.51585,4.24523
-0.60584,12.45367,4.31614
-1.12181,12.61155,3.97538
-1.55967,13.72498,3.82694
-1.38177,13.69624,4.20938
-0.62122,15.13394,4.66983
-0.45220,16.06882,6.21105
-1.07450,15.48782,5.90625
-0.60484,15.74189,5.86426
0.90977,16.17638,5.54110
0.79967,15.68476,5.26263
-0.66465,15.21352,5.78333
0.71372,16.00102,5.52481
0.36663,14.96275,4.77289
0.81236,15.01767,3.79503
-0.40557,13.60637,2.84385
0.95441,12.92150,3.11771
-0.22029,13.11629,4.26371
0.01763,12.79958,4.54009
0.99939,13.47621,4.94685
0.02812,13.13174,4.63376
-0.31014,14.37300,4.55387
-0.50865,16.17741,5.22960
-1.42412,15.88903,4.83972
-1.19803,15.09663,4.66889
-0.16266,16.11625,5.70581
-0.81397,15.47061,5.83238
-0.19713,14.67615,6.68164
0.80021,15.02564,5.02949
0.11632,14.57574,4.87548
0.25704,14.15915,4.58057
0.05581,14.18402,4.23994
-0.03039,13.24433,4.27066
0.04358,13.38054,3.98540
-0.33200,13.58542,4.52221
-0.32349,14.17772,3.90438
-0.51644,13.81408,3.81681
0.80647,14.70906,4.50081
0.23092,14.81497,4.85381
-0.22146,14.56849,5.47153
0.19115,15.83134,5.37657
-0.65448,15.71055,4.81757
-0.75788,15.77069,4.82060
0.17036,15.61952,4.83610
-0.08043,14.68811,5.56436
-0.90501,14.79178,5.14893
-0.51155,14.57456,4.67816
0.00103,14.18008,4.94170
0.71467,13.61715,5.19275
0.39969,13.73069,4.68051
0.04657,12.82032,4.38811
-0.26535,13.79799,4.07016
-0.25340,14.88199,4.12186
0.25894,15.25934,4.85409
0.38413,15.47071,5.00487
0.43922,15.11507,4.38037
0.11570,14.90425,4.68026
-0.41513,15.08208,5.17949
-0.36504,15.55448,4.34649
-0.64030,15.31882,4.45008
-0.69738,14.66672,4.52666
-1.04327,14.04753,5.22932
-0.34292,14.24970,5.36970
-0.10900,14.08143,4.69609
-1.06723,13.93252,5.03159
0.40124,13.82343,4.40518
0.61220,14.00626,4.99937
-0.08345,13.91717,5.09328
-0.40868,14.73888,5.14826
0.03203,15.07778,4.58568
-0.52518,15.73540,4.89109
0.44371,15.18366,4.89597
-0.26619,14.89845,4.34236
0.27558,14.24855,5.27455
-0.31360,14.93134,5.44561
-0.19090,14.66307,4.52974
0.03765,14.79402,4.16791
-0.40275,14.93920,4.49280
-0.50806,14.04385,4.57250
0.07978,14.32225,4.93817
0.03098,14.20283,4.78325
-0.65587,14.69308,4.65697
0.56152,14.87626,4.87696
0.16498,14.72588,4.51840
0.02474,13.62664,5.29474
-0.54409,14.52148,6.00670
-0.27020,15.12086,4.52074
0.21083,14.68683,4.42300
0.44597,15.46947,4.97709
-0.37622,14.39669,4.45228
0.13633,13.94354,5.10212
-0.08193,15.02084,5.35645
-0.62882,14.75860,4.22034
0.01807,14.93172,3.93762
0.30300,14.97025,4.45065
0.02598,14.05959,4.42792
0.24969,13.97954,5.11375
0.00602,14.67255,4.97876
-1.08368,14.87220,4.75987
0.57434,14.76597,4.30312
0.25171,14.88289,4.41034
-0.07052,14.54852,4.86786
-0.46799,15.35498,6.35173
-0.74509,14.89966,4.67362
-0.28821,14.83351,4.14292
0.09951,14.19167,5.44643
-0.39986,14.73361,3.90060
-0.08595,14.41344,5.75117
0.23470,15.34069,5.00135
-0.27480,14.89815,4.03999
-0.44925,14.49015,3.90390
-0.16665,14.44890,4.29368
-0.02549,13.96070,4.78259
-0.02881,14.43763,5.55822
0.27203,14.40871,5.21921
-0.56769,14.45949,4.50776
0.56926,14.98685,4.48698
0.92094,15.14550,4.82247
-0.60113,14.30330,5.21357
-0.86230,14.79317,5.44320
-0.58496,14.61626,4.79313
-0.42934,14.61113,4.71600
0.84800,15.01010,5.10591
0.14923,14.19250,4.45114
-0.30601,13.47476,4.90965
0.37899,14.52929,5.97210
-0.50220,14.45942,3.18285
-0.73263,14.02404,4.54267
0.64406,14.56289,4.60552
-0.43769,14.17091,4.67300
0.50754,14.42051,5.30155
0.07931,14.28249,5.20668
-0.56404,14.36412,4.15913
0.27888,15.09268,4.32553
0.72355,14.97116,4.80254
-0.57771,14.64771,4.57819
-0.27231,14.56329,4.91619
-0.88490,14.46981,4.66086
-0.67489,14.39660,4.66552
0.92617,14.53443,4.59656
0.42804,13.92805,4.36280
-0.55669,13.95215,5.20547
0.43898,14.17762,5.63518
-0.10098,14.34328,4.93744
-0.88495,14.42902,3.63835
0.43781,14.77616,4.33383
0.03245,14.90978,4.39179
-0.29015,13.93575,5.13080
-0.02839,14.75564,5.75472
-0.14084,15.09202,5.26526
-0.23373,14.83550,4.73644
1.08949,15.05047,4.68229
0.12716,15.22581,4.53232
-0.45635,14.56459,5.03474
-0.17240,14.53581,5.02674
-0.85670,14.37777,4.27186
-0.35838,14.95162,4.39191
-0.23813,14.74327,5.01129
-0.28429,14.08752,4.46765
0.42918,14.07336,4.71175
-0.06751,14.58771,5.26219
-0.00018,14.69876,4.17757
-0.28078,14.65144,4.35231
-0.17638,14.55890,4.23556
-0.08153,14.77157,5.04543
-0.00591,14.64816,5.47271
-0.36300,14.80129,5.05058
-0.46623,14.48113,4.62112
0.32172,14.67026,5.10167
0.30388,14.80617,4.87741
-0.19901,14.28757,4.08070
-0.52496,13.46953,4.77702
-0.11056,15.36036,4.79573
-1.10540,13.28396,4.13299
1.57743,15.34945,4.02463
-0.41859,14.12914,4.61593
-0.27289,13.54457,4.76108
0.94556,15.64499,5.44001
-0.11424,13.90031,4.60176
-0.23951,14.92430,4.17000
0.47434,15.11340,4.38096
-0.35845,14.81680,4.94391
-0.22998,13.62818,4.51116
0.05923,14.90345,4.74068
-0.52587,14.63443,5.27918
-0.08589,14.72425,5.03589
0.32451,14.13429,4.71202
0.17412,14.39070,4.76250
-0.37071,14.38435,4.21575
-0.70625,14.57025,5.17120
-0.27802,14.37241,4.55141
-0.39822,14.69252,4.17062
-0.04368,14.06712,4.43500
-0.16365,14.23985,5.00549
-0.42178,14.27283,4.97048
0.00003,14.15956,5.09237
0.07586,14.64341,5.12443
-0.55323,14.77709,4.37206
0.00755,15.42267,4.30794
0.19395,15.08647,5.06693
-0.46302,14.52881,4.62942
-0.20234,14.33983,4.70793
-0.06990,14.58773,5.26209
-0.60585,13.81311,4.53660
0.22254,14.15005,4.99765
0.28275,14.61378,4.84913
-0.22625,14.31536,4.23929
-0.23263,14.41160,4.58471
-0.58496,14.24104,4.64570
-0.39794,14.18801,3.89839
0.20202,15.10217,4.95984
-0.51754,14.33718,5.26153
0.01837,14.11513,5.04393
0.50819,14.46984,5.30550
-0.29985,14.95297,4.98895
-0.22081,14.63214,4.43879
-0.58587,14.63355,4.67985
-0.18563,14.84403,4.64986
-0.00449,15.22377,4.96089
0.38576,14.19438,4.92367
-0.37375,14.42589,5.23636
-0.45497,14.52225,5.31139
0.08412,14.63937,4.50373
0.51711,14.81395,5.00226
-0.40831,14.42930,4.59378
0.15127,14.98354,4.80182
-1.19265,14.19690,4.39254
-0.17424,14.54898,4.62561
-0.55018,14.85830,4.49069
-0.07430,14.50869,5.13634
0.30441,14.41508,4.83871
0.06420,15.30037,5.06279
-0.17593,14.42508,4.78432
-0.67041,14.65074,4.62911
-0.38626,14.47710,4.27011
0.27302,14.99112,4.98876
-0.20071,14.65716,4.90575
-0.30818,14.66992,4.89905
-0.26411,14.50597,4.96583
-0.14384,14.55718,4.87190
0.27151,14.64319,4.67083
0.45713,15.19449,4.83197
0.12291,14.11564,4.64949
-0.23523,15.04125,4.69418
-0.38863,14.63355,4.22486
-0.17707,14.66119,4.86324
-0.22692,14.55283,4.31327
-0.11355,14.68882,4.96091
-0.10105,14.11301,5.14194
0.30822,14.18361,5.04723
-0.36474,14.50214,4.73713
-0.28036,14.21743,4.59127
-0.20934,14.27262,4.18480
-0.02342,14.17264,5.02338
-0.20302,15.52183,5.09791
-0.30503,13.98994,4.15491
-0.19787,14.78466,3.43960
-0.55292,13.55697,5.84271
1.42639,14.78806,5.18987
-0.03848,14.05127,5.50682
0.19203,16.38036,4.09756
-1.39494,13.47080,4.08887
-0.13327,15.14959,4.24841
0.50197,13.59665,5.50125
-0.25387,14.67194,5.49525
0.50549,14.32822,4.94490
-0.17802,14.68595,4.06484
0.05853,14.84155,4.50241
-0.15598,14.81121,5.16854
0.09945,14.70941,4.68558
-0.48372,14.37623,4.99328
-0.18604,15.41057,4.52472
-0.58456,14.92054,4.75602
0.11391,14.72986,4.86559
-0.05313,14.75111,5.16592
0.13193,14.20227,5.05378
-0.34736,14.45977,4.68183
-0.00398,15.00641,4.76462
0.01104,14.51079,5.06860
-0.06455,14.67808,4.35838
-0.34748,13.95545,4.40842
-0.53088,14.95401,5.47007
-0.80097,14.29547,5.41941
-0.31503,14.87203,4.56587
-0.40128,13.76518,5.03811
0.57167,15.20063,4.72098
0.39915,13.79403,4.94307
-0.23997,14.71673,4.87817
-0.13006,14.33495,4.05608
-1.17714,14.89629,4.68372
-0.18957,15.48752,4.35439
-0.03062,14.28368,4.96309
0.12973,14.12334,4.92747
-0.19343,14.39692,4.98862
-0.51608,14.30082,4.22279
0.54340,15.11647,4.64101
0.31770,14.37336,4.78202
-0.13617,14.63463,4.36814
-0.26847,14.63206,4.79965
-0.81315,14.25443,4.72707
-0.42738,14.45587,4.12078
0.11280,14.38189,4.54741
0.30146,14.38526,4.71641
-0.22831,14.38751,4.74546
0.36757,14.99772,5.20901
0.40932,14.52906,4.67767
-0.70711,14.63377,4.76901
-0.40494,14.34696,3.84262
0.10225,15.28521,4.17196
0.15449,14.62133,4.25394
0.29986,14.77763,4.75087
-0.45073,13.95021,5.48148
0.10536,14.32296,4.93477
-0.58527,14.65307,4.55887
0.25694,13.99027,5.05245
-0.17220,14.89505,4.31414
-0.18445,14.18080,5.09106
-1.19755,14.33514,3.82501
-0.34402,14.11680,4.65001
0.64832,14.57735,5.16502
-0.10308,14.61156,4.49660
0.06266,14.68016,5.22576
-0.12012,14.34413,4.63205
-0.37009,13.87742,4.61103
-0.30583,14.88208,5.13891
-0.68206,14.50566,3.97316
-0.12871,15.24775,4.25477
0.25964,13.97069,4.53717
-0.50652,14.77166,5.35041
-0.02547,14.13397,5.29006
-0.16199,14.97046,5.11461
-0.08475,14.73578,4.00325
0.43390,14.69498,4.87565
-0.01486,15.35265,4.78527
-0.78018,14.55986,4.65734
-0.45539,14.56623,4.39342
-0.56786,14.64334,4.61710
-0.25776,15.22480,4.17320
-0.14039,14.04049,4.36233
0.00849,14.63677,4.90295
-0.09633,13.98900,4.66701
0.23957,13.94917,5.65913
2.01427,15.46775,4.57222
-0.51601,15.56286,4.73500
-1.28013,16.85800,4.91538
-1.35751,12.52493,4.07481
0.56147,15.62625,4.86759
-1.18433,13.31770,6.23489
-0.65690,15.28357,4.39402
0.38324,13.69967,4.92385
-0.45689,14.46453,3.76136
0.84673,14.22800,4.39607
0.43328,15.88519,6.17838
-0.68702,13.81902,4.24490
0.08428,14.88480,4.85476
-0.19396,13.35703,4.32328
0.29932,15.08138,3.75124
1.09163,15.27530,4.52290
0.45316,13.85523,5.15266
0.35696,15.10771,5.15197
-0.36745,14.30685,5.04798
-0.04303,15.53683,4.89913
-1.26839,13.34117,4.20017
0.88866,16.80405,6.98940
0.96214,15.12517,3.00997
-1.94037,13.71766,4.80262
1.07222,16.22981,6.07748
-0.40713,13.36372,5.39326
-0.37073,14.90933,4.36315
0.19840,15.63923,4.71144
-0.64822,13.68651,4.42947
-0.21507,14.71173,3.92593
-0.12977,14.31755,5.13443
-0.98047,14.21295,4.79123
-0.27086,14.68844,4.11697
0.18134,15.16756,4.88409
0.02190,13.95940,4.45253
0.63362,14.16531,4.94811
0.63278,14.39027,5.42291
-0.74604,14.81515,4.58831
-0.99665,15.03132,4.00462
-0.59018,14.73004,4.38843
-0.55713,13.95407,4.56486
0.09477,14.42022,5.27813
-0.18552,13.90186,5.29116
-0.18985,14.64957,4.95734
-0.51540,14.50565,4.18300
0.17315,14.92655,4.51809
-0.22972,14.63613,4.42425
-0.08113,14.60408,4.85080
-0.89068,14.76029,4.72383
-0.26705,14.60138,4.67946
-0.29651,14.32465,4.23905
-0.32471,14.98104,4.51096
0.26177,14.66717,5.17206
0.35835,14.71478,5.11927
0.02050,14.17312,5.32342
-0.13005,14.64063,4.65125
-1.04471,14.74433,4.28971
-0.53624,14.82920,4.03106
-0.23064,14.62490,4.82017
-0.27359,13.99379,5.07740
-0.30462,13.23409,4.87368
-0.01972,14.23646,4.62069
-0.16419,14.70842,4.23718
0.43982,14.90935,4.44601
0.71133,14.50413,4.62887
-0.05063,14.15176,4.54229
-0.38760,14.23840,4.86021
-0.40902,14.48234,4.58365
-0.52704,14.52234,4.40475
0.06879,14.75113,4.43963
0.55073,14.54137,4.82089
0.71260,14.46095,4.90886
-0.21961,14.28607,5.07836
-0.53061,14.23130,5.00345
-0.52428,15.01703,3.77046
-0.34509,14.76821,3.96962
0.23978,14.61045,4.58711
-0.11530,13.91342,5.16515
-0.20708,14.34990,4.97786
0.30320,13.99928,4.96479
-0.21240,14.70506,4.61008
0.40261,15.16949,4.39343
0.41322,14.59357,4.57577
0.09991,14.68365,4.85261
-0.19528,14.64961,4.95698
-0.12714,14.76902,4.78037
-0.28570,14.94100,4.41834
0.17512,14.81890,4.56819
0.74775,14.93198,4.40627
0.45772,13.71451,5.09065
0.41222,14.19078,4.93481
-0.22931,14.23799,5.07103
-0.35060,14.80077,4.08311
-0.33616,14.94450,4.10621
-0.04663,14.87607,4.67088
0.46208,13.99881,5.17660
-0.31659,14.33031,4.85591
0.09989,14.36129,5.33370
-0.17641,14.72946,4.74795
0.21374,14.61857,4.23064
0.11629,14.63982,4.80231
-0.14339,14.48036,4.40548
-0.24958,14.16995,4.88196
-0.85855,15.06481,4.65664
-0.53358,15.02720,4.67579
0.03283,14.57619,4.63081
0.11349,14.54850,5.07550
0.28217,14.63977,5.01243
0.01802,14.50150,5.12632
-0.53180,14.59190,4.92094
-0.57438,14.36375,4.81850
-0.56961,15.25049,4.21945
-0.60633,15.02693,4.40534
-0.10796,14.00991,5.17845
-0.56499,14.72847,5.02631
-0.41223,14.50857,5.38110
-0.26788,14.71944,5.20183
-0.37213,14.47466,4.60565
0.16186,14.86848,4.90300
-0.04384,14.24887,4.55332
-0.62538,14.27651,4.77788
-0.49536,14.80492,5.12933
-0.33909,14.60717,4.69216
-0.19005,14.51720,4.20460
0.32912,14.37484,4.44503
0.01683,14.35271,4.48362
0.19837,14.29713,5.04134
0.03168,14.56589,5.02405
-0.53379,14.67904,4.35774
-0.95090,15.04008,3.91537
-0.48202,14.76656,4.39769
-0.43569,14.63934,4.86873
-0.26129,13.87085,4.90101
-0.41540,14.16688,4.37884
-0.08807,14.72509,4.39743
0.12097,14.76405,4.64181
0.42876,14.93091,4.95579
0.22903,14.24683,4.37598
-0.23561,14.20874,3.98004
-0.22644,13.90155,4.35541
-0.43974,14.75877,4.42051
-0.22571,14.88945,4.39023
0.15058,14.31138,4.33444
0.02079,14.31352,5.05430
-0.12558,14.93056,5.02175
0.40714,13.94449,5.24917
-0.07327,14.83702,4.30378
-0.61209,14.86731,4.15705
0.02482,14.96466,4.37425
0.25793,14.64826,4.65458
-0.42973,14.09701,5.16220
-0.23768,14.11190,4.93458
-0.19857,14.65178,4.95001
-0.22439,14.34247,4.39496
0.25588,14.48143,5.09376
0.28576,14.85630,4.57543
-0.24714,14.61195,4.91842
-0.39498,14.52043,4.64936
0.10487,14.70200,4.73648
-0.28576,14.32607,3.89997
0.16977,14.46129,4.64057
0.56463,14.30040,5.08932
0.35898,13.75009,5.25771
-0.01801,14.37166,5.03156
-0.08021,14.39809,4.25697
-0.34731,14.69493,4.12584
-0.39279,14.76091,5.01747
0.21026,14.64609,5.02428
0.17967,14.12226,4.90013
-0.35081,14.32445,4.60070
-0.29204,14.49702,5.05124
-0.57891,14.92489,4.40644
-0.04546,14.41092,4.79309
0.24544,15.06894,4.51319
-0.07545,14.75147,4.86185
-0.12619,14.66396,4.82190
-0.20727,15.04011,4.69354
-0.52816,15.51764,4.71709
-0.06003,14.89553,4.88378
0.03456,14.53985,5.19268
-0.05828,14.50379,4.84757
-0.28518,14.24019,4.45932
-0.30042,14.61167,4.31427
-0.62164,15.04574,4.61934
-0.17068,14.82770,4.75510
0.19080,15.36241,4.90456
0.04235,14.08347,4.92660
-0.42091,14.51751,4.68820
-0.19011,14.35671,4.92637
0.23253,14.85615,3.97077
-0.06467,14.73494,4.63897
0.21479,14.65094,5.31227
-0.49541,14.58621,4.93668
-0.74690,14.08287,4.51089
-0.19804,15.01272,4.86631
-0.80550,14.38209,4.21963
-0.11571,14.64718,4.59984
0.60485,14.68481,5.14718
0.02434,13.92865,5.30017
-0.02841,14.90472,5.12824
-0.22732,14.73589,4.42527
-0.03678,15.02967,3.99725
-0.31023,14.87562,4.21886
-0.13841,13.94007,4.69199
-0.19567,14.54541,4.99611
-0.51937,14.77603,5.33629
-0.52344,14.30975,4.49443
0.15216,14.64114,4.13157
0.27208,14.95425,4.91711
0.41002,14.12915,4.69628
-0.30023,14.21375,4.96216
-0.51082,14.37376,4.39295
-0.49460,14.99008,4.57275
-0.43758,14.73366,4.58450
-0.14329,14.64416,4.63895
0.46552,14.14175,4.90016
0.22016,14.35156,4.99919
-0.37943,14.39110,5.15743
-0.56883,14.43071,4.70681
-0.22845,15.05266,4.62529
-0.23928,14.67729,4.81258
0.11782,14.49249,5.12222
-0.44641,14.39595,5.17362
-0.10602,14.50234,5.21540
-0.29328,14.42949,4.52668
0.10697,15.11147,4.65833
0.30205,14.65819,4.56335
0.06247,14.52365,4.63544
-0.49125,14.56618,4.42084
-0.23321,14.53292,4.45823
0.19191,14.31103,4.63650
-0.11691,14.96504,4.79630
0.29873,14.64739,4.95910
-0.08523,14.18962,4.97235
-0.06298,14.85430,5.15843
-0.15346,14.78538,4.69947
-0.19484,15.30901,4.55215
-0.35452,14.88468,4.19108
0.30080,14.61500,4.84435
-0.38022,14.23596,5.19880
-0.70224,14.16135,4.94038
-0.03782,14.62214,5.03709
0.02955,15.17642,4.61512
0.10066,14.78441,4.85214
-0.03771,14.98137,4.95869
-0.33195,14.64185,4.46498
-1.01312,14.50521,4.21356
-0.18039,14.57812,4.77640
-0.44197,14.77332,4.01070
-0.41430,14.65811,4.41687
0.88307,14.57680,5.01523
-0.19785,14.50357,5.27297
-0.19430,14.27850,4.79722
-0.11843,14.99819,4.90869
-1.04153,15.04903,4.24769
-0.25998,14.64210,4.73641
0.24400,14.98448,5.06852
-0.37080,13.77984,4.93197
-0.38731,13.99112,4.54022
-0.26741,14.78310,4.79792
-0.54401,14.83428,4.00998
0.07429,14.66370,4.36619
-0.42048,14.67994,4.92691
-0.60729,14.52706,4.11462
-0.58309,14.16504,4.83781
-0.29806,14.69427,4.42851
-0.30955,14.36183,4.33587
-0.38634,15.09142,4.81265
0.43692,14.04814,5.21144
-0.02152,14.25097,5.18168
-0.02467,14.76190,4.76879
-0.10441,14.63289,4.36896
-0.57796,14.81465,4.16016
-0.25921,14.92802,3.84801
0.04689,14.88536,4.88258
-0.64642,14.13727,4.73980
-0.44892,14.39267,4.88062
-0.15916,14.72730,5.08591
-0.14660,14.64093,4.34519
0.70619,14.51359,4.90325
-0.11148,14.30535,4.56449
-0.85358,14.69377,4.49460
-0.16615,14.40631,4.59498
-0.07736,14.91034,4.80837
0.00712,14.38904,4.58501
0.36675,14.64397,4.93834
0.44820,14.50434,5.14486
-0.20863,14.17241,5.17648
-0.10349,14.47763,4.41051
-0.75161,14.86948,4.57202
-0.57176,14.94349,4.28795
0.19443,14.62872,4.83384
-0.24539,14.22849,5.15986
-0.37850,14.00751,4.43007
-0.23823,14.36314,4.60376
-0.03835,14.62894,4.34975
0.06568,14.02016,4.35874
0.57401,15.03854,4.81291
-0.45761,14.30146,5.15432
-0.55514,14.41641,4.47638
0.21494,14.54169,5.06467
-0.40215,14.83562,4.54990
-0.00555,14.64230,4.88529
0.40590,14.55599,4.83854
0.07280,14.53533,5.20604
0.05544,14.07492,4.98235
0.10365,15.10257,5.04804
-0.85314,15.33321,4.21021
-0.09249,14.34201,4.63586
0.54445,14.86869,5.29299
-0.60744,13.73799,4.72562
-0.57196,14.42307,5.09301
-0.19500,14.95135,4.62499
0.05466,14.55308,4.45549
0.22958,14.33692,4.77019
0.07123,14.73436,4.88096
-0.68579,14.78574,4.42862
-0.22132,14.19597,4.71151
0.02237,14.77024,4.68249
0.00218,14.42225,4.69722
0.02811,14.66236,4.73366
0.01161,14.38927,5.55448
-0.03566,14.31248,5.11829
0.14269,14.49926,5.07129
-0.60172,15.52148,4.43067
-0.88919,14.52558,3.99834
0.29942,15.32122,4.78382
-0.30745,14.32539,4.89931
-0.19452,13.88840,4.75599
-0.12377,14.52311,4.45535
-0.53336,14.53403,4.66800
0.28958,14.64017,4.37382
-0.14620,14.76020,4.86526
-0.37084,14.96897,4.63360
-0.66770,14.69893,4.65860
-0.03062,15.07516,4.67611
-0.49478,15.03650,4.27983
-0.08908,14.26756,4.79862
0.21926,14.43500,5.11229
-0.00629,14.60084,5.16136
-0.29210,14.27675,4.55987
-0.30537,14.49228,4.45811
-0.56614,14.44504,4.29849
-0.24974,14.62786,4.50526
-0.10580,14.70931,5.16962
-0.07601,14.28881,4.97728
-0.44337,14.25458,4.80956
0.09864,14.66393,5.00126
-0.32600,14.53681,4.50626
0.33965,14.68542,4.69238
-0.25257,14.89701,4.69714
-0.76405,14.30321,4.39221
-0.54048,14.59972,4.89516
0.22447,14.91897,4.87071
-0.30289,14.22396,4.26334
0.55865,14.77799,5.23192
0.20057,14.16841,5.24653
-0.34440,13.79170,5.16917
0.23024,14.57528,4.84197
-0.02462,14.81243,4.76777
-0.82870,15.10273,4.08191
0.05290,14.98417,4.88820
0.24768,14.87999,5.10921
-0.45677,14.42804,4.98592
0.19745,14.79251,5.06904
0.21042,14.03426,4.49645
-0.01899,14.51130,4.45938
0.48037,15.31537,5.34628
-0.47682,14.75152,4.83241
-0.67220,14.10427,4.65589
-0.02362,14.81291,4.76617
-0.48284,14.82212,4.37721
-0.09777,14.29632,4.62083
0.32405,15.12751,5.06226
-0.22689,13.99407,4.74165
0.20284,13.97595,4.88435
-0.16397,14.41975,4.18907
-0.72893,14.79563,4.39792
-0.32545,14.73640,4.17881
-0.03902,14.86193,5.10467
-0.27225,14.58286,4.82251
-0.35654,13.89043,4.53825
-0.16213,14.65066,4.95176
-0.28847,14.40140,4.39696
0.08990,15.24037,4.81522
-0.04885,14.33674,4.65060
-1.26260,14.31660,4.65884
-0.70600,14.16119,4.63687
-0.32060,14.85507,4.70202
-0.58321,14.68455,4.70078
-0.08251,14.67248,4.42991
0.15549,14.44713,4.43827
-0.44337,14.09572,4.55869
0.30244,14.06686,4.54903
-0.39369,14.53802,4.22920
-0.88461,14.41519,3.75192
-0.45091,14.67569,4.66564
-0.23091,13.98433,5.13552
-0.37982,14.59645,4.81258
0.18989,14.54182,5.09457
-0.77788,14.35463,4.72306
-0.08761,14.46918,4.46450
0.35939,14.75587,4.87432
-0.34060,14.35217,4.75772
-0.94259,14.23208,4.66779
0.32008,14.60886,4.89171
-0.64988,14.73339,4.43188
-0.20182,14.43443,4.44805
0.28698,14.71308,4.88201
0.04806,14.03115,4.96221
0.00401,13.91616,5.09620
0.46422,14.81976,4.71133
-0.99404,14.93915,4.30005
-0.26475,14.92224,4.22485
-0.07991,14.83992,4.95813
-0.17573,14.16464,4.89577
-0.39251,14.34605,4.83695
-0.14729,14.92052,4.80675
-0.09141,15.05618,4.85366
0.42086,15.06456,4.76453
0.22499,14.92729,5.14907
-0.37276,14.61863,4.98819
0.03805,14.68798,4.89821
0.00295,15.02337,4.67805
-0.38005,14.68894,4.53277
0.41117,14.85591,4.51157
0.27548,14.77928,5.10833
0.01085,13.97564,4.70384
0.18685,14.03898,4.81607
-0.01660,15.38454,4.92764
-0.56475,14.65293,4.24687
-0.14895,15.04387,4.64763
-0.26391,14.92304,5.19510
-0.39602,14.30393,5.11585
-0.11424,14.58587,5.02450
-0.07119,15.24893,4.88052
0.12517,14.44572,4.47218
0.60638,14.59583,4.77736
-0.18210,14.58989,5.04321
-0.76252,14.46812,4.62301
-0.39580,15.01289,4.37743
-0.53474,15.01130,4.80905
-0.49350,14.33680,4.31779
0.25046,15.08699,5.06280
0.05526,14.40218,4.48221
-0.28569,13.66272,5.01059
0.19446,14.87127,4.89203
-0.65428,14.72951,4.13859
-1.09994,14.36710,3.89587
0.06627,15.36265,4.68913
-0.41615,13.98840,5.24635
-0.42780,14.71470,4.72956
0.31425,14.71810,4.83588
-0.60876,14.64607,4.32929
-0.53355,14.26469,4.17068
0.35412,15.33799,4.97446
-0.64975,14.53598,4.75276
-0.82289,14.39762,4.80619
0.06935,14.73477,4.57428
-0.69794,14.53406,4.15047
-0.18617,14.73539,4.42225
0.29109,14.87495,5.12374
-0.07792,13.69719,4.96617
0.35655,14.31791,4.82540
-0.08517,15.18031,4.69208
-1.09747,14.24940,4.34206
-0.27078,14.90770,4.32904
0.61823,15.23465,5.46679
-0.35340,14.17297,5.29797
-0.10109,14.20971,4.88103
-0.08369,14.51482,5.14741
-0.65341,14.73030,4.13575
0.26373,14.20618,4.64582
-0.09511,15.28356,5.32392
-0.73826,14.11332,4.65848
-0.22580,14.66964,4.55927
-0.25718,14.38165,4.51525
-0.81624,14.37628,4.29149
0.34271,14.49678,5.29048
0.41647,14.34710,4.91965
-0.43610,14.23355,4.96340
0.37751,15.02705,4.72465
-0.17674,14.67747,4.47410
-0.73729,14.23714,4.49739
-0.06472,14.86852,4.44485
-0.11567,14.81877,4.80848
-0.90923,14.13722,4.95287
0.11167,14.29905,5.12753
-0.21438,14.84723,4.69264
0.01933,14.06817,4.42408
0.78662,15.21434,5.16201
-0.39276,14.93966,4.53642
-0.75068,14.33032,4.55116
-0.05113,14.88987,4.62369
-0.49617,14.80185,4.86192
0.06755,14.81719,4.69017
0.40901,14.61149,4.82184
-0.22532,13.76851,4.93458
-0.07948,14.29048,4.66712
0.00287,14.39197,4.26864
-0.51727,14.49157,4.30636
-0.35941,14.87820,4.26489
0.09596,14.58979,4.85888
-0.44329,14.26149,4.78760
-0.44056,14.57852,4.98785
0.25185,14.53667,4.77441
-0.71266,14.23647,4.16423
0.24932,14.73009,5.13481
0.40973,14.76745,4.77715
-0.78877,14.38153,4.24451
-0.38694,14.47269,4.66733
-0.14290,14.33770,4.40308
-0.73596,14.70552,4.36260
0.04949,15.01736,4.69505
0.51520,14.55065,4.82187
-0.56355,14.21075,4.88098
0.32283,14.53725,5.04638
-0.09604,14.61368,4.51376
-1.01007,14.59490,4.30251
-0.35455,15.27547,4.58852
0.07928,14.71464,5.03027
-0.76406,14.61671,4.96627
0.01110,14.32216,4.72319
-0.54205,14.36509,4.50601
-0.36060,14.43835,4.22253
0.09657,14.66512,4.69222
0.27225,14.61001,4.27861
-0.71590,14.18857,4.15685
-0.34322,14.66284,4.36704
-0.49968,14.82931,4.68798
-0.48705,14.93011,4.01798
-0.07923,14.99368,4.61521
-0.27961,14.41688,4.95719
-0.28705,14.75605,4.69449
0.16925,14.62801,4.56004
-0.81482,15.00096,4.11101
-0.67539,14.72786,4.17331
0.34318,14.84652,4.63033
-0.34019,14.31355,5.02598
-0.73091,14.12037,4.94212
-0.00224,14.41434,4.78009
-0.31763,14.70431,4.72917
-0.19507,14.71702,4.23299
0.52628,15.03858,4.87138
-0.14103,14.18152,4.44845
-0.52315,14.00366,4.25710
-0.07865,14.24754,4.94930
-0.91948,14.50903,4.80526
-0.29340,14.70786,4.68775
0.68512,15.15152,5.32131
0.24117,13.49547,5.42113
0.21642,14.12019,4.60052
-0.13819,14.57946,4.76971
-1.15598,14.54120,4.43531
-0.34507,15.09283,4.80487
0.14452,14.78551,4.84620
-0.27365,13.91750,4.97256
-0.81143,14.29866,5.13546
0.50787,14.69173,4.88288
-0.98478,14.20281,4.90795
0.16642,14.70389,4.39146
0.41471,14.92908,5.01990
-0.32412,14.18465,4.56180
-0.62349,14.77471,4.48773
-0.13831,14.77403,5.12657
-0.75956,14.74114,4.80359
-0.34105,14.23444,4.89923
0.55774,14.97365,5.28037
-0.39118,13.99131,4.90287
-0.06061,14.23740,5.01024
0.01901,14.84419,4.88276
-0.79978,14.94805,4.45264
-0.32505,14.85077,4.10304
0.16922,14.90376,5.03703
-0.22117,14.31842,4.91893
0.09548,14.34537,5.17061
0.16373,14.53928,4.82762
-0.47349,14.87228,4.06923
0.41125,14.84396,4.60620
0.10149,14.78993,4.52773
-0.81216,13.90773,5.09757
-0.59633,14.07545,4.49729
-0.31450,14.74916,4.44033
-0.77031,14.56566,4.66315
0.03966,14.91811,4.38433
0.15761,14.25507,4.74161
-0.11780,13.86611,4.88296
0.19417,14.59130,4.79200
-0.10309,14.63847,5.01766
-0.74448,14.76765,4.29584
-0.26351,15.07332,4.55762
-0.09685,14.76723,5.14676
-0.56376,14.56332,5.18741
-0.11877,14.80665,4.90555
-0.15392,14.55128,4.97665
-0.52226,14.55415,4.23827
0.85665,15.05070,4.89268
0.21323,14.62747,4.86559
-0.39005,14.03506,4.61773
-0.59314,14.19941,4.33547
-0.22576,14.46987,4.58251
-0.41257,14.19181,3.92991
0.05349,14.82617,4.32649
0.31275,14.20729,4.94608
-0.17567,13.96715,4.91326
0.20885,14.18771,4.82292
-0.02404,15.12709,4.36241
-0.67856,14.60763,4.32135
-0.16353,14.69593,4.35582
0.06280,14.02023,4.72040
-0.84625,14.40017,4.82840
-0.01124,14.63846,4.95586
-0.11699,14.65670,5.23721
-0.06903,14.62025,4.46189
0.25742,14.97951,4.80702
-0.05071,14.76986,4.77204
-0.80195,14.67130,4.64830
-0.28511,14.29221,4.81532
-0.09722,14.64967,4.61713
-0.49733,14.79490,4.27192
0.39138,14.73407,4.69415
0.57996,14.66252,5.03157
-0.11504,13.91534,4.88644
0.15591,14.64877,4.77069
-0.39981,14.92264,4.34231
-0.96085,14.87506,4.39860
0.19021,14.74801,4.74493
0.29657,15.24099,5.02244
-0.52726,14.07846,4.76185
-0.62157,14.42936,5.13536
-0.23598,14.37526,4.56324
-0.19348,14.95729,4.29677
0.22591,15.00384,4.67221
0.24698,15.43234,4.77920
-0.60344,14.18537,4.43841
-0.66445,14.39394,4.41807
0.02777,14.50706,4.16205
-0.46003,14.58361,4.33088
0.07656,14.94435,4.51733
0.46297,14.66070,5.12943
-0.42770,14.13116,4.99858
-0.15009,14.83732,5.05688
-0.33572,15.03193,4.56030
-1.00297,14.80330,4.24939
-0.10983,15.13900,4.02086
-0.41148,15.02104,4.68553
-0.86510,14.52657,4.99534
-0.16124,13.79562,4.73016
0.19483,14.51791,4.95284
-0.44917,13.73942,4.32204
0.33969,14.29161,4.04915
0.00166,14.70254,4.85322
-0.48450,14.66068,4.49466
-0.51467,14.37288,4.45029
-0.25969,14.88145,4.19094
-0.48713,14.57458,4.08357
-0.07024,14.57855,4.74058
0.76912,14.62820,4.79809
0.33268,13.92800,4.81435
-0.50577,14.11515,4.83383
0.11070,14.88289,4.24488
-0.41510,14.93497,4.27421
0.11346,15.24212,4.16505
0.33147,14.94875,4.96046
0.01526,14.25658,5.16539
-0.23488,13.90830,4.69471
0.04400,14.30291,4.84148
-0.63318,15.15512,4.61665
0.07439,15.25621,4.42782
0.68029,15.30629,4.97481
-0.43377,14.35680,4.49810
-0.65501,14.80206,4.34218
-0.29583,14.35344,4.75186
-0.52517,14.66975,4.46718
0.03208,14.86699,4.07947
0.42640,14.87315,5.06647
-0.02390,14.34615,5.26101
0.16861,14.04240,4.83546
-0.25514,14.50118,4.73160
-0.38479,14.51447,4.08103
-0.30246,15.04595,4.12008
0.26866,15.54461,4.68280
0.03862,14.13809,5.28000
-0.55156,13.84014,4.72027
0.01794,14.05834,4.51297
-0.24366,14.98987,4.77840
-0.06820,14.54168,4.33233
0.46132,15.12902,4.99360
0.04864,14.66332,4.75746
-0.55641,14.45771,4.25396
-0.65706,14.68007,4.49773
-0.48018,14.86065,4.16283
-0.77248,14.56394,4.36145
0.42818,14.59927,4.58209
-0.06154,14.24196,4.99635
-0.07609,14.33475,5.05143
-0.14823,14.52779,5.13927
-0.18278,14.81869,4.22654
-0.40009,14.45197,4.17823
0.13238,15.62989,4.54700
-0.44184,14.54300,5.24809
-0.17012,14.64773,5.02021
-0.49945,14.48269,5.03386
0.08609,14.76963,5.01563
-0.07752,14.45240,4.60263
0.32590,15.29531,4.97928
0.24805,14.73120,4.82522
-0.96476,13.80992,4.23298
-0.54767,14.71066,4.21972
-0.15004,14.64031,4.39992
-0.79972,14.71717,4.35476
0.19569,14.56266,4.66391
0.58120,14.59072,5.18802
-0.12312,14.22077,5.18348
-0.23278,14.46456,4.96452
0.15296,14.64626,4.47154
-0.56240,14.84509,3.99536
0.12427,14.48104,4.26952
-0.52328,14.75832,4.87041
-0.07293,14.53992,5.01002
-0.68441,14.24959,5.06944
0.12556,14.60108,4.79229
-0.00891,14.64674,4.25668
0.58019,14.66447,4.04621
0.35134,14.83244,5.06807
-0.67578,13.83380,4.52535
-0.61982,14.35628,4.31618
-0.22474,15.02825,4.84463
-0.30557,14.85036,4.43631
0.17019,14.20418,4.09934
1.00575,14.95926,5.07663
-0.04169,14.04930,5.27503
0.07081,14.31560,5.07794
0.25103,14.61901,4.58388
-0.40138,14.84586,4.20551
-0.41322,14.82480,4.02464
0.03649,14.65039,4.85745
-0.44624,14.45862,4.83069
0.00248,13.92277,4.77105
0.12176,14.63465,4.90456
0.09555,14.43090,4.29868
-0.03731,14.60147,4.57778
0.46868,14.75484,4.84359
0.54008,13.93309,4.64430
-0.22422,14.32523,4.89752
-0.22971,14.93684,4.14198
-0.08895,14.43327,4.41519
-0.77361,14.80291,4.43014
0.15083,14.84163,4.82692
0.06684,14.50449,5.14728
-0.02717,14.85590,5.51992
0.10508,14.72144,4.67157
-0.00466,14.88986,4.62012
-1.03479,14.66982,3.85606
-0.28810,14.83968,4.49883
-0.09373,14.81653,4.84346
-0.63562,14.13547,5.14051
-0.50814,14.35354,5.58008
-0.36301,15.49734,5.13549
-0.79822,14.24673,4.19036
0.21843,14.91274,4.64069
0.15248,15.11799,5.30422
-0.55012,14.62894,4.77352
-0.73630,14.46992,4.64541
0.02625,14.90069,4.86236
-0.96587,14.54949,4.28246
-0.00904,14.44504,4.28637
0.89765,15.00713,5.17603
-0.07146,14.15030,4.96855
0.24141,14.24644,4.76577
-0.13812,14.73924,4.40406
-0.56413,15.03639,4.05519
-0.40458,14.71902,4.06898
-0.03870,15.26480,4.79778
-0.31888,13.81338,5.07535
-0.22297,13.85460,4.73458
-0.43377,14.47649,4.71472
-0.37839,14.76768,4.71774
-0.16165,14.85867,4.28617
0.73239,15.16313,4.91788
0.07715,14.52767,5.32211
-0.72011,14.34517,4.47209
-0.07123,14.50447,4.59624
-0.05076,15.04402,3.96653
-0.52822,14.12125,4.17054
-0.12260,14.03005,4.81333
0.65787,14.48573,4.52571
-0.21443,14.18741,4.82585
-0.43788,14.59618,5.23987
0.11495,15.48450,4.21988
-1.49435,13.69874,3.71389
-0.10625,15.58763,5.01178
-0.13117,15.15630,5.58854
-0.65861,13.35281,4.42402
-0.50207,13.58667,5.39893
0.03428,14.13311,4.68251
-0.96362,15.03004,4.72091
0.43899,14.62542,4.74607
0.21785,14.24711,4.11965
-0.26771,14.60620,5.05489
-1.08985,14.77669,4.84899
0.14301,14.43183,4.60065
-0.33937,14.43736,4.24984
0.05261,14.31877,4.42410
0.28043,14.90701,5.30123
0.38772,13.87343,5.16379
-0.11268,14.47196,4.84870
0.14732,14.94699,4.47438
-0.37649,14.56843,4.06584
-0.05866,15.02947,4.07165
0.41202,15.28397,5.01185
-0.42594,14.60672,4.83977
-0.85136,13.69165,4.95964
-0.14317,14.10323,4.68271
-0.10140,14.67871,4.12692
0.16648,14.97695,4.26046
0.21483,14.86702,4.62552
-0.49379,14.68611,4.69061
-0.72352,14.25687,4.74130
-0.41982,14.49336,4.60184
-0.73397,15.02014,4.62695
-0.41986,14.99612,3.89953
0.42578,14.75154,4.91388
0.23315,14.97561,5.21525
-0.07985,14.33205,5.42829
0.08504,15.11364,4.73462
-0.17603,14.90495,4.32859
-1.05874,14.85821,3.95610
-0.05641,14.60151,4.60728
0.10568,14.44610,4.86440
-0.05293,14.76383,4.84953
-0.44506,13.91226,5.51281
0.35258,14.54714,4.67729
-0.33522,14.83056,4.27987
0.18572,14.73551,4.53472
0.63104,14.71103,5.03574
-0.25940,14.57478,4.93574
-0.75400,14.67356,4.63869
-0.20415,14.69886,4.40351
-0.91718,14.58642,4.01498
-0.37915,14.48551,4.62527
0.36966,14.54156,5.03202
-0.18383,14.62430,5.21433
-0.18606,14.38179,4.84765
0.15964,14.33426,4.25245
-0.54026,14.95274,4.27761
-0.44985,14.78953,3.97589
0.80027,15.34306,4.67463
-0.04310,13.92018,4.84041
-0.38062,14.13276,4.99396
-0.26421,14.28469,4.56057
-0.05199,15.15671,4.88064
-0.12346,14.83779,4.40958
0.56365,15.33887,4.87356
0.50336,14.92482,5.03006
-0.85542,14.50445,4.84781
-0.64077,14.39177,4.45221
-0.24384,14.86919,4.62179
-0.82450,14.82213,4.03260
0.14237,14.54687,4.83325
0.06045,14.56347,4.78327
0.27432,14.34023,5.12416
-0.14983,14.63776,4.77350
-0.01332,14.75075,4.58154
-0.60372,14.84429,4.05529
-0.25889,15.22813,3.89615
-0.00526,14.80515,4.87651
0.05423,14.63600,5.29972
-0.44101,14.42330,5.09197
-0.39167,14.66057,4.79806
0.11934,15.12781,4.29094
-0.02982,14.52627,4.43628
1.48750,15.14185,5.19016
-0.03748,12.59769,4.38637
-2.04625,14.11613,6.31943
-2.68575,15.47752,7.64539
-1.63540,11.84412,3.62421
-0.50998,14.65286,4.60732
0.07052,13.62668,7.05867
0.88863,15.61118,5.48372
0.37463,14.82724,5.79022
0.06423,14.64695,4.89704
-0.91964,15.52110,4.42082
-0.38493,15.01575,4.42081
0.07529,14.74324,4.91056
0.46224,14.11013,5.20994
-0.04045,14.35586,5.26406
-0.35659,13.85600,4.85469
-0.06786,14.89439,5.00406
0.13076,14.12439,4.02982
0.29899,14.96324,4.60569
0.41388,14.84898,4.95391
-0.62830,14.33558,4.49957
-0.40015,14.09469,4.61800
-0.10674,14.78260,4.45276
-0.64856,14.45506,4.38093
0.23710,14.31273,4.68508
0.77434,14.44291,5.08336
0.09496,14.54436,4.90217
-0.01196,14.32721,5.10503
0.12689,14.94246,4.20827
-0.59963,15.08461,4.11879
-0.49559,15.18546,4.36408
0.03336,14.91471,5.12580
-0.40481,13.89776,4.94288
-0.04412,13.87755,4.81664
-0.07042,14.49655,4.68001
-0.13267,14.11108,3.98000
-0.08629,14.54301,4.04528
0.28450,15.06275,4.94830
-0.53932,14.37409,4.84293
-0.64378,13.80011,4.44249
-0.22709,14.53801,4.18483
-0.33859,14.43446,4.62585
-0.23361,14.95658,4.04505
0.39620,14.61818,4.51986
0.48212,14.22229,5.11343
0.09214,14.26643,5.10514
0.13543,14.37432,4.68234
-0.42860,15.09991,4.22459
-0.94420,14.77591,4.11071
-0.26280,15.14188,4.15645
0.11714,14.81136,4.76321
-0.38261,14.08380,4.68197
0.08251,14.17052,5.09041
-0.14756,14.32426,4.56062
-0.17502,14.86218,4.30238
0.15547,14.72187,4.66693
0.62600,14.85668,5.08247
-0.91069,13.97509,4.46438
-0.55505,15.07725,4.14070
-0.15447,14.89269,4.08534
-0.58806,14.55226,4.02119
0.12015,14.77832,4.64857
0.46726,14.93788,4.98939
0.10357,14.52483,5.36250
-0.34692,14.50122,4.85304
0.10261,14.62840,4.33663
-0.95412,14.83633,4.04876
0.10326,15.25733,4.44680
-0.17238,14.72023,4.92114
-0.66061,14.63677,4.84180
-0.44220,14.30612,5.23533
0.31776,14.25656,5.01004
-0.30929,14.79193,4.20950
-0.17358,14.63929,4.79884
0.27475,14.81241,4.97428
0.17657,14.68495,4.90271
-0.46991,14.16949,4.17326
-0.17502,14.55244,4.38610
-0.38292,14.51221,4.14107
-0.12978,14.82851,4.49673
0.26542,14.28472,4.52368
-0.14263,14.54180,5.09689
-0.52752,14.47837,5.14024
0.33408,14.82830,4.49328
-0.54446,14.90426,3.95980
-0.17364,14.67470,4.22779
0.30663,14.82475,4.53542
-0.11972,14.30253,4.68802
-0.46140,14.78526,5.03271
0.06803,14.54323,4.93648
-0.27391,14.97961,4.59006
-0.14124,14.65845,4.64709
0.51593,14.98137,4.33171
0.27124,14.73223,4.84970
-0.47385,14.60829,4.89590
-0.46019,14.58392,4.38421
-0.09387,14.85438,4.63269
-0.49285,14.13992,4.38678
-0.02809,14.69379,4.66123
0.72902,14.29168,4.80686
0.38528,14.30089,4.99741
-0.23697,14.61906,4.98436
0.07422,15.01890,4.40502
-0.59706,14.89813,4.03983
-0.10301,14.79330,4.04856
-0.26418,14.45334,4.78249
-0.79263,14.45909,4.80021
-0.61682,14.13024,4.88054
0.17598,14.60542,4.77581
-0.14170,14.88281,4.14479
0.15070,14.32530,4.33828
0.32855,14.86838,4.89498
0.25548,14.73790,4.49282
-0.97218,14.42915,4.80094
0.66082,14.74430,3.82148
-0.28338,13.97228,3.69515
0.41239,14.25170,3.97529
1.17197,14.64715,4.76351
1.48057,14.23411,4.97734
-0.02846,14.14651,4.67129
-0.19395,14.64593,4.43872
0.11932,14.90307,4.48178
-0.48905,15.12832,4.41358
-0.24161,14.91727,4.31760
0.34670,14.19522,4.73515
-0.39431,14.19378,4.62190
-0.20862,14.11651,4.67201
-0.20789,14.90106,4.73723
-0.64293,14.47935,4.55119
0.28624,14.43861,4.14441
0.47930,14.73342,4.69022
-0.13137,14.36965,4.91431
-0.68381,13.70331,4.46032
-0.35929,14.67912,4.33808
-0.52351,14.87395,4.48319
-0.25202,14.42940,4.26908
0.21332,14.13061,4.93417
-0.16538,14.43273,5.18432
0.00409,13.97475,5.13569
-0.11690,15.04895,4.34490
-1.11192,14.81167,3.99948
-0.44225,14.92567,4.07711
0.22778,14.80954,4.36599
-0.50544,14.01664,5.22746
-0.40173,14.65288,4.88196
-0.07319,14.18860,4.75864
0.08789,14.45364,4.19199
-0.29392,14.43756,4.24436
0.58827,14.95746,4.77442
0.23143,14.62095,4.29565
-0.98560,14.80046,4.65020
-0.38490,14.98099,3.99935
-0.63185,14.49503,4.44119
-0.49510,14.37103,4.17186
0.33985,14.22217,4.56001
0.54971,14.43122,5.33781
0.04523,14.51496,5.14677
0.03340,14.56803,4.79882
-0.12794,15.03438,4.45116
-1.03430,14.83525,4.45085
-0.30198,15.44459,4.49181
0.57469,14.04295,5.26201
0.35193,14.01451,4.94940
-0.48223,14.16362,4.56028
0.16905,15.11989,5.32937
-0.00805,14.44904,3.95938
1.41350,15.52648,4.35209
0.67856,14.72676,4.92527
-0.36028,14.69315,4.91211
-0.70666,14.21596,4.37027
-0.06791,14.74557,4.34753
-1.30262,14.46296,4.48216
-0.31537,14.78800,3.91042
-0.47896,14.42670,5.79235
-0.29757,13.54503,4.91156
-0.05182,14.55065,5.31625
-0.45454,14.95212,4.58200
-0.49999,15.09566,3.64784
-0.35135,14.99974,3.84832
0.01429,15.09322,5.28875
-0.07392,14.34531,4.71029
-0.63790,14.17747,4.92107
0.54760,14.17617,4.38981
0.27554,14.70199,4.72563
0.34521,15.12400,4.17218
-0.34261,14.52669,5.02108
0.75798,14.50112,4.72026
-0.64004,14.56315,4.66438
0.04624,14.61211,3.82889
-0.94285,15.34861,4.94517
-0.57306,14.27457,3.88051
0.15157,14.33408,4.61937
1.14796,13.74648,4.49868
-0.58031,15.49657,5.35383
0.52440,14.51708,5.78573
-1.24908,14.40248,4.85280
0.28743,14.61088,2.65715
-0.19582,15.55383,5.02045
0.21507,14.47182,3.97990
0.09866,14.69915,5.87963
-0.33107,13.24443,4.28882
0.00301,14.30939,3.89248
0.56738,15.00432,4.81564
-0.31463,15.03197,4.27371
0.57408,14.61994,4.38832
-0.50905,14.79644,4.99789
-1.04231,14.06549,3.62899
-0.17897,14.71123,4.32983
-0.59252,13.70365,4.39617
-0.56691,14.55941,3.96444
0.31139,14.72661,4.86625
0.01301,14.68791,4.67828
0.05893,14.10546,4.88894
0.12248,14.84381,5.21883
-0.75628,14.35865,4.11852
-0.66826,14.93809,4.16328
0.21335,15.14664,4.78352
-0.00552,14.13834,4.04697
-0.34439,14.64127,5.25689
0.03450,14.17696,4.76239
-0.54877,14.39915,4.36339
-0.01341,14.60355,4.59736
0.51587,15.13915,4.27894
-0.24423,14.88431,4.88108
-0.43506,14.28503,4.71265
-0.70595,14.87907,4.59186
-0.08412,15.17651,4.13765
-0.41087,14.43065,4.04940
-0.06390,14.83338,4.75790
-0.04202,14.63989,5.04233
0.18437,14.31781,5.03984
0.09762,14.83423,4.97022
-0.40896,14.51864,4.45919
-0.70950,14.54771,3.81622
-0.22462,15.05675,4.04289
-0.29935,14.82330,4.66707
-0.06740,14.62360,4.50530
-0.18407,14.24282,5.14943
-0.64835,14.23054,4.57287
-0.18035,14.27758,4.57905
-0.09670,15.12671,4.81607
0.33426,14.75659,4.65027
0.24265,15.07594,4.90728
0.24215,14.52824,4.91899
-0.65866,14.52689,4.59063
-0.14803,14.64714,4.74274
-0.39247,14.34528,4.28017
-0.67938,15.03820,4.50514
0.74707,14.68173,5.18566
0.48991,14.56061,5.18857
-0.06145,14.36771,4.88867
-0.34077,14.75112,4.51773
-0.62612,15.07975,3.85135
-0.63579,15.07127,4.24849
-0.39772,15.00729,4.50479
0.12850,14.57487,5.02411
-0.14856,14.50523,5.36389
-0.36166,13.86273,4.83367
0.19916,14.37509,4.64736
0.24506,14.80701,4.71243
-0.13237,14.52141,4.57188
0.19935,15.32184,4.95650
-0.33066,15.00978,4.77461
-0.69736,14.73264,4.23689
-0.51687,14.37710,4.49232
-0.32204,14.54444,4.22432
-0.31063,14.49147,4.57248
0.65114,14.35252,4.46569
0.25778,14.90982,5.01504
0.08277,14.69104,4.94605
-0.39137,14.43356,4.68919
-0.14659,14.60083,4.04994
-0.49225,14.52233,3.83002
-0.04532,15.44525,4.64145
-0.10205,14.61261,4.94103
0.28964,14.49435,5.11534
-0.54621,13.70336,4.70622
0.20110,14.29403,4.52501
-0.18036,14.66386,4.32049
-0.31443,14.67983,4.64371
0.26282,15.10630,4.69014
-0.16866,15.23315,4.48973
-0.79156,14.45605,4.50009
-0.42601,14.09755,4.63909
-0.06189,14.58457,4.09912
-0.83016,14.18743,3.99557
0.28332,14.19603,4.45427
0.34711,14.15666,5.00747
0.32335,14.62698,5.20248
-0.01310,14.78693,4.37401
-0.15323,15.13402,4.14454
-0.84050,14.63271,3.67987
-0.53033,14.76739,3.88215
-0.12903,15.11600,5.25106
0.21334,14.01087,5.08522
-0.46111,13.93045,5.12164
-0.44047,13.96040,4.90581
0.27522,14.88504,4.50319
-0.75513,14.79205,4.55034
0.25199,14.68600,4.18708
0.18775,14.93441,4.56890
-0.47442,14.72015,4.83070
-0.70391,14.39355,3.85631
0.16179,14.61348,4.41022
-0.63140,14.53085,4.54735
-0.86257,13.95303,4.93217
0.28894,14.61581,5.63926
0.27394,14.62112,5.28277
-0.19487,14.95303,4.73141
-0.84534,14.40241,4.57266
-0.70200,14.79304,4.17559
-0.79374,14.87588,4.35502
-0.07655,14.56956,4.88743
-0.42112,13.95702,5.25689
-0.22948,14.32011,5.34622
-0.33947,13.54210,4.98396
-0.35814,14.52038,4.76268
-0.43229,14.23354,4.40681
-0.60584,14.65053,4.73638
-0.22737,14.94292,5.16515
0.10263,14.71527,5.11882
-0.52075,14.63508,4.78320
-0.33240,13.89538,4.60971
-0.32105,14.38369,4.65618
-0.08409,14.39403,4.74591
0.06597,14.29843,4.94559
0.06467,15.04917,5.57905
0.43377,14.42074,5.52619
-0.61435,14.46814,4.30611
-0.32632,14.64042,4.26880
-0.27180,14.60680,3.78298
-0.59293,14.20699,5.04781
-0.52813,14.79031,5.42121
0.30473,14.24209,5.48864
-0.50903,14.19148,5.09495
-0.07604,14.29476,5.08245
0.21179,14.85240,4.78839
-0.23719,14.91607,4.68997
0.18997,14.74129,4.88280
-0.02273,15.32278,5.14057
-0.41957,14.61587,5.18242
-0.62773,14.33197,4.57048
-0.72661,14.04881,4.54432
-0.00055,14.22356,4.83577
-0.30208,14.54319,5.24993
-0.05195,15.35320,5.29527
0.16973,15.06407,5.40828
-0.72826,14.94132,4.55531
-1.16812,14.30968,4.11777
-0.56664,14.33956,3.80218
-0.46204,14.06255,4.59243
-0.72877,14.08239,4.65840
0.10779,14.63645,4.98932
-0.04504,14.62396,5.52596
-0.27785,14.34383,5.24392
-0.34990,14.67914,4.70774
-0.18271,14.13911,4.53961
-0.81936,14.78058,4.36951
-0.41593,14.76493,4.84756
-0.21828,14.79069,5.20033
-1.01205,14.31010,5.01535
-0.72006,14.04989,4.54178
-0.31678,14.41951,4.76309
-0.03986,14.33307,4.46770
-0.03818,14.49568,4.71120
-0.02932,15.02450,5.16020
-0.27618,14.61443,5.43432
-0.48674,15.29699,4.66721
-0.81828,14.73356,4.36002
-0.62287,14.36644,4.68248
-0.46772,14.46756,4.55503
-0.54842,14.72093,4.58196
-0.14078,14.36795,5.32364
0.05780,13.87939,5.12028
-0.11464,14.52681,5.23700
-0.86774,14.18679,4.74320
0.13804,15.05220,4.51390
-0.90108,14.87205,4.83468
0.05997,14.65001,4.60654
0.11236,14.58257,4.68955
-0.50284,14.72740,5.18254
-0.76029,13.76744,4.14157
-0.89117,14.02833,4.82911
-0.57236,14.17021,4.63555
-0.45740,14.28637,4.77259
-0.21851,14.75620,4.43800
0.21308,14.53537,5.95171
-0.59163,14.87121,4.61642
-0.78472,14.11615,4.49531
-0.39819,14.64530,4.31689
-0.76467,13.84160,4.65883
0.09964,14.79057,4.97955
-0.47922,14.73121,5.82363
0.12808,14.28705,4.66911
-0.08877,14.60558,5.70875
-1.74916,13.44782,5.39304
-0.12550,14.93777,4.15524
-0.24789,14.44340,5.24868
-1.01949,14.47840,3.56698
-0.12210,14.97346,5.59917
-0.71712,14.01225,5.49947
-1.18831,13.70098,4.26092
-0.64360,13.96747,5.07750
0.17008,14.70605,4.83517
-0.30886,14.64542,4.93649
0.42569,15.17878,5.14318
-0.08195,14.91937,5.61089
-1.39716,13.99530,5.47106
-0.74867,14.29312,4.97514
-0.78201,14.30118,4.26596
-0.72887,14.47759,4.71544
-0.35363,13.97790,4.79203
-0.20717,14.21978,4.72635
-0.16867,14.33409,5.27515
-0.20284,14.63464,5.62252
-0.85687,14.65946,5.27636
-0.27401,14.21803,4.45255
-0.57831,14.80945,5.05668
-0.85441,15.04485,5.01810
0.34674,14.86437,4.31048
-0.36275,14.55336,5.28512
-0.70248,13.84605,4.27164
-0.52086,13.66117,5.05923
-0.05152,14.24003,4.47400
-0.44275,15.11073,4.93170
-0.55225,14.36158,5.72659
0.32023,15.14710,5.11773
-0.82734,14.75308,5.64114
-0.96075,14.90401,5.05133
-0.96375,14.42268,4.60981
-0.60016,14.44064,4.20494
-0.61879,14.27111,5.04218
-0.74069,14.59956,4.58803
-0.38060,14.87780,5.80869
-0.39763,14.34184,5.75520
-0.73205,14.43413,5.38168
-0.46216,14.13576,4.83560
-0.26417,14.84960,4.55298
-0.81301,14.90969,4.90699
-1.08071,14.98935,4.22835
-0.15830,14.65579,5.46407
-0.60309,14.22113,5.38498
-0.40298,14.27225,4.87945
-0.76272,13.69841,4.32535
-0.34389,14.95585,4.91131
-0.75191,14.24302,5.35118
-0.36202,15.07497,4.79196
-0.08450,14.69946,5.45232
-0.27376,14.06658,5.17187
-0.88223,14.57242,5.58065
-0.84599,14.06000,4.29787
-0.44187,14.42921,4.51820
-0.62976,13.58219,5.02737
-0.58725,14.84369,4.51495
0.23989,14.93824,5.95445
-0.63927,14.38666,5.31011
-0.41771,14.48176,5.16671
-0.31352,14.06059,4.56694
-0.43532,15.29613,4.70017
-1.31302,14.60444,4.67839
0.30569,14.91029,5.07161
0.04569,14.25009,5.37734
-0.46673,13.96073,4.69264
-1.38898,13.84354,4.16887
-0.41996,14.14818,4.39085
-0.36276,14.65154,5.32599
-1.00128,14.50234,4.80255
0.50698,15.18117,5.78849
-0.23498,15.03490,6.00780
-0.58720,14.88613,4.91450
-0.87452,14.05195,4.73042
-0.51680,13.85831,4.07463
-0.20262,13.65579,4.54113
-0.69507,14.73664,4.66246
0.56141,14.75393,5.27072
-0.26369,14.32128,5.81917
-0.06883,14.17649,5.64009
-0.75207,13.62790,4.48289
-0.22953,14.97154,4.73567
-0.83755,14.81474,4.92288
-0.56211,15.37433,4.27251
-0.39137,14.72494,5.88104
-1.07035,13.99526,4.94307
-0.62029,14.17476,5.40761
-0.85013,13.99311,4.10061
-0.46084,14.45491,4.37666
-0.40827,14.18151,5.53861
-0.12876,15.13375,4.91742
0.33221,15.12204,6.35204
-0.33668,14.71715,5.21662
-0.99938,14.29414,4.54437
-0.50996,14.37564,4.62433
-0.46019,14.06334,4.34315
-0.64059,13.73135,4.72301
-0.07992,14.42946,4.60393
0.04945,15.06549,5.93979
-0.18105,14.52265,5.75620
-0.52151,14.47755,4.96498
-0.35749,14.49461,4.03161
-0.73232,15.13416,5.05500
-0.69721,15.14364,4.61766
-0.40115,15.52581,4.83031
-0.30738,13.98413,5.11860
-0.69768,14.03039,5.10883
-0.97516,13.95577,5.15987
0.22614,13.83731,3.99787
-0.79730,14.48465,5.13735
-0.91864,14.74673,5.13840
0.78919,15.02479,6.33216
-0.51392,14.81363,5.73577
-0.70528,14.89374,4.64450
-1.03483,13.49415,4.62573
-0.43538,14.74919,4.05457
-0.39687,14.28268,4.50430
-0.59284,14.84654,4.53818
0.14932,14.72120,5.85181
-0.40221,14.53818,5.83980
-0.14126,14.37962,5.35611
-0.53177,13.97562,4.33583
0.03802,14.62167,4.56591
-0.25972,14.46041,5.57726
-0.57193,14.80263,4.48618
-0.35858,14.90708,5.31588
-0.71322,14.29942,4.64757
-0.48682,14.29453,4.84564
-0.53331,14.25482,4.81377
-0.09756,14.66672,4.71069
-0.58068,13.83118,5.03878
-0.43788,14.99817,5.09664
0.45326,15.06399,5.65440
-0.33408,14.51051,4.95271
-0.86106,13.51157,4.72499
-0.36248,14.09903,4.38608
-0.59150,14.37480,4.37833
-0.52594,14.20599,4.11908
-0.43093,14.53041,4.54790
0.39962,14.65745,5.41801
-0.24583,14.24793,5.67634
-0.40994,14.26529,4.99841
-0.53754,14.53663,4.24854
-0.31893,14.90972,4.58531
-0.61154,15.08309,4.64763
0.13896,14.85820,4.57803
-0.31582,14.35290,5.35056
-0.78551,14.14531,5.09994
-0.62038,14.18579,5.03226
-0.49028,14.57672,4.27911
-0.62470,14.44014,4.64613
-0.30401,13.93320,4.80829
0.39717,15.27413,5.62770
-0.05940,14.75244,5.82395
-0.66680,14.80964,5.22054
-1.18515,14.32497,4.86291
-0.15221,14.86126,4.10421
-0.42169,14.49833,4.42803
-0.40607,14.42974,5.23876
0.53458,14.91126,5.28150
-0.44505,13.94708,5.52292
0.01550,14.27989,5.25677
-0.11154,14.63285,4.62811
0.21186,14.65718,4.19835
-0.58471,14.76925,4.40217
-0.48933,15.07761,4.25314
-0.04263,14.79942,5.14282
-0.79855,14.22366,4.57305
-0.68833,13.80831,5.30297
-0.39870,14.03624,4.52021
-0.22041,14.49149,4.66407
-0.66842,14.33696,5.06430
-0.44282,14.82383,4.95097
0.45501,15.09284,5.47034
-0.04582,14.40752,5.11086
-0.43648,14.51916,4.64577
-0.81916,14.32616,3.87561
-0.50088,14.76164,4.73807
-0.86898,14.41844,4.65736
0.27531,15.28439,4.97018
0.18762,14.60623,5.26961
-0.13758,14.50852,5.86653
-0.33829,14.49173,4.76052
-0.16189,14.77493,4.37344
-0.57420,14.71094,4.45816
-0.60538,15.32320,4.71373
0.29543,14.65786,4.82246
-0.67921,14.32340,5.16990
-0.32125,13.98077,4.84893
-0.58232,14.12395,4.75362
0.14492,14.43483,4.42309
-0.35709,14.69231,4.76252
0.37319,15.24876,4.79602
-0.02470,15.03510,5.56898
-0.51963,14.90623,5.48148
-0.59969,14.48004,4.70943
-0.23291,14.06939,4.16052
-0.12854,14.31825,4.07128
-0.83874,14.24146,4.83285
-0.19909,14.93914,4.30090
0.15160,14.42611,5.17364
0.00810,14.50457,5.43517
-0.40392,13.77757,5.29843
-0.15292,14.25058,4.56668
0.08256,14.74308,4.05760
-0.38419,14.94422,4.41543
0.40778,15.47214,5.29142
-0.00999,14.68878,4.85913
-0.23769,14.53007,4.41776
-0.66282,14.13318,4.41229
-0.25886,14.49317,4.34502
-0.30313,14.11728,4.57872
-0.12474,14.49898,4.88978
0.22286,14.80547,4.89695
-0.02365,14.87204,5.32432
-0.58648,14.57653,4.72197
-0.67796,14.07079,4.51377
-0.21797,14.24777,4.29406
-0.09550,14.73090,4.63520
0.10876,14.51717,4.22906
-0.00131,14.32707,5.29889
-0.36907,14.56595,5.31609
-0.35453,14.30950,5.01716
0.06949,14.61596,4.61301
0.16615,14.57115,4.15298
-0.11004,14.82382,4.69090
0.05807,15.19146,5.10911
-0.23024,14.41460,4.18127
-0.49669,13.95305,4.84644
-0.49910,14.21581,4.74779
0.02237,14.49433,4.46005
-0.45381,14.16508,4.37038
0.12018,14.46634,4.57658
0.36786,15.16166,5.06835
-0.22464,14.56928,5.17600
-0.47556,14.73490,5.26204
-0.04474,14.39297,3.48904
-0.26541,14.54440,3.99622
-0.15534,14.19451,4.27036
-0.53864,14.53464,4.63179
0.18638,14.46098,4.56014
-0.04514,14.42632,4.64324
0.30106,14.58556,4.98533
0.28824,14.39912,4.56233
-0.13970,14.91171,4.10196
0.23601,14.97462,4.74483
0.30606,15.28004,4.63664
0.01962,14.26544,4.67311
-0.30717,13.90589,4.32814
-0.33794,14.51838,4.58303
0.32217,14.76055,4.43722
-0.08399,14.32677,4.67264
0.50735,14.25575,4.34480
0.20267,15.25999,4.51331
-0.08292,15.07227,5.01383
-0.36768,14.20450,4.71660
-0.57559,14.49216,3.91624
-0.52883,14.54020,4.23657
-0.48697,14.53200,4.26117
-0.16014,14.80982,4.48432
-0.10185,14.45415,4.84083
-0.81426,14.12432,4.94814
-0.17308,14.42022,5.13787
0.51627,15.04102,4.40369
-0.00453,14.48277,4.21387
0.52728,15.29204,4.37326
-0.58724,14.92106,4.74514
-0.50273,14.46998,4.36124
-0.46839,14.25840,4.42473
-0.34548,14.23323,4.50028
0.00068,14.54745,4.79782
0.14833,14.37009,4.87713
0.15336,14.83624,4.73953
0.14909,14.95200,4.97516
-0.36343,15.26080,4.96596
-0.17250,14.71383,4.47036
-0.21220,14.19735,3.60229
-0.22786,14.89702,4.62216
-0.66127,14.63316,4.38956
-0.54129,14.31413,5.13330
0.27669,14.31979,5.12564
0.05138,14.31662,4.63789
0.25725,14.45525,5.58333
0.13189,14.79131,4.37722
-0.15993,14.45701,4.17253
0.26319,15.11654,4.07967
-0.14479,14.96238,4.79296
-0.93396,14.10725,4.46929
-0.11980,14.22852,4.69787
-0.29236,14.38638,4.08230
-0.13507,14.81303,4.44201
-0.10426,14.87226,4.69638
-0.18797,14.65185,4.57031
0.36374,14.85107,5.15961
0.08477,15.34989,5.02155
-0.41988,14.60037,4.07669
-0.79011,14.60188,4.01877
-0.42636,14.97862,4.21463
-0.36395,14.43372,4.50260
0.24008,14.13068,4.74298
-0.14410,14.38923,4.98221
0.02129,14.34760,4.79347
0.28803,14.82573,4.70584
0.48887,14.95633,4.32341
-0.21494,15.22216,4.42210
-0.09207,15.04190,4.54263
0.27683,14.22990,4.71464
-0.39397,14.53865,4.48942
-0.63994,14.09736,4.65004
-0.07245,14.26838,4.72920
-0.35968,14.40860,4.67542
0.30258,14.80612,4.48364
0.30219,14.82288,5.06066
0.25060,14.89890,5.26463
0.16573,15.16989,4.82756
-0.53992,14.44489,4.22015
-0.08278,14.22078,3.68250
-0.45206,15.06627,4.66451
-0.61565,15.00960,4.15383
0.05700,14.36494,4.64379
-0.15894,14.56445,5.15790
-0.24238,14.34400,5.03199
-0.04682,15.43465,4.88548
0.28787,14.89089,4.25016
-0.42751,14.49567,4.81359
0.07773,15.71993,4.87038
0.01385,14.79945,4.76385
-0.51364,14.46473,4.75548
-0.37008,14.31299,4.66029
-0.37138,14.05894,4.00784
-0.57395,14.50136,4.20177
0.32646,14.58013,4.65550
-0.10282,15.36404,4.38415
0.13395,14.88179,4.78618
-0.22273,15.29845,4.93886
-0.46426,14.64283,4.16524
-0.39104,14.18562,4.17844
-0.61183,13.68229,4.75304
-0.44678,14.63200,4.23019
0.60209,14.19719,5.02873
0.03951,14.65582,5.05554
-0.17385,14.24877,4.60444
0.07733,14.74630,4.73969
0.24753,14.82585,4.39177
-0.05758,14.83873,4.89453
0.11921,15.55663,4.93983
0.10429,13.83154,4.86482
-0.62469,14.41428,4.16091
-0.62577,13.76764,4.51760
-0.15271,14.27711,4.38919
-0.04974,14.37893,4.63425
-0.19474,14.87546,4.75164
-0.28319,14.77923,5.14990
-0.12194,15.42658,5.00717
0.11310,14.78049,5.16689
-0.54254,14.39758,4.21104
-0.41029,14.14964,4.10251
-0.68834,14.57535,4.13052
-0.38606,14.59578,4.78271
0.13321,14.73546,5.11849
0.10764,14.22437,4.89379
-0.11653,14.39328,4.93745
-0.15377,15.11345,4.09949
0.22431,14.39708,4.28675
-0.35533,14.71986,4.58201
-0.42992,14.94841,4.78131
0.02053,14.52917,4.57111
-0.41787,14.38124,4.57394
-0.45722,14.55367,4.79066
-0.07854,14.81999,4.35549
0.20519,14.61420,4.86663
0.73025,15.03954,4.24463
0.26182,15.08617,4.64624
0.03125,15.38743,5.50362
0.09360,14.82577,5.21453
-0.59380,14.80988,4.14909
-0.23713,14.47478,4.11867
-0.32331,14.69746,4.71445
-0.17945,15.03687,4.30877
0.11583,14.35410,5.02250
0.01927,15.04571,5.12586
0.18976,14.56058,5.25546
0.03821,14.57459,3.89311
-0.15185,14.76864,4.07766
-0.41539,15.27316,4.58251
0.00249,15.31969,4.96085
-0.00181,14.68180,4.56594
-0.28991,14.16705,4.58028
-0.07979,14.09141,4.59106
0.13111,14.17085,4.55698
-0.24537,14.79654,5.00030
-0.01250,14.83132,4.91658
0.34880,14.80708,4.79376
0.15171,15.20749,4.58394
-0.14011,14.38188,4.69047
-0.39792,14.66383,3.97164
-0.25324,14.17570,4.14279
-0.12005,14.67299,4.37634
-0.20168,14.85336,4.56927
0.32718,14.94209,5.25320
-0.13203,14.66711,4.77292
0.12739,14.37698,5.20251
0.62644,14.21743,4.52362
-0.28137,14.51707,4.20790
0.11257,14.95268,4.65910
-0.09762,15.52822,4.62535
-0.53760,14.56147,4.45376
-0.64884,14.10098,4.29347
-0.22169,14.07949,4.44354
0.25921,14.37409,4.42079
-0.38711,14.70248,4.73232
0.44162,14.73004,4.90664
0.80209,14.71411,5.07247
-0.32503,14.73939,5.11878
-0.32284,14.30464,4.68578
-0.68669,14.25593,3.93560
-0.28182,14.70568,4.27897
-0.42432,14.86611,4.66195
-0.14598,14.36699,4.80054
-0.19127,14.49118,5.01106
0.23797,14.61659,4.82670
0.19461,14.39615,5.01454
0.20577,14.89324,4.30773
-0.06699,14.94041,4.19930
-0.00018,14.94322,4.47185
-0.43388,14.68814,4.52727
-0.47774,14.38598,4.59327
-0.28203,14.40332,4.65934
-0.31606,14.11515,4.61826
0.06249,14.21802,3.93946
0.26182,14.80819,4.85565
0.51125,14.98683,4.79284
-0.25698,14.83267,4.76225
0.02716,15.04485,5.12852
-0.29163,14.47118,4.88783
-0.55568,14.55010,4.20770
-0.37025,13.97173,4.28215
-0.30548,14.81894,4.55493
-0.00439,14.75708,5.08621
0.34200,14.48952,5.28450
-0.45867,14.45718,4.77932
-0.27014,14.69779,5.02792
0.35861,14.63417,4.26425
-0.84906,14.83195,4.21538
0.38956,15.10266,4.08727
-0.28248,15.02749,5.16056
-0.44423,14.71683,5.03641
-0.07980,14.00333,4.86753
-0.01920,14.36776,4.70039
-0.22455,14.49142,4.69696
0.44845,14.82875,4.56527
0.00672,15.45191,4.73602
0.45630,15.12238,4.93616
-0.07949,14.91265,4.41248
-1.11398,14.35445,4.30242
-0.46184,14.15516,4.12018
-0.57148,14.43184,4.01260
-0.14711,14.68097,4.35312
0.00626,14.30536,5.11548
-0.07125,14.29693,5.23870
0.19811,14.17638,4.47471
0.06652,14.34284,4.46106
0.21336,15.15626,4.20749
-0.15306,15.13287,4.32324
0.33786,15.37653,4.64735
0.08781,15.04297,4.75494
-0.57210,14.36721,4.46686
-0.21818,14.22104,4.50475
0.53563,14.54965,4.71234
-0.30582,14.26305,4.28130
0.43134,14.45618,4.75638
0.16771,14.79748,5.01768
0.21786,14.64811,4.98022
-0.19592,15.01156,5.20826
0.04748,14.46154,4.34169
-0.30807,14.28034,3.81796
-0.64892,14.19497,4.34769
-0.03180,14.73240,4.94420
0.46568,14.58927,4.84206
-0.12057,14.61943,4.76542
-0.04392,14.05486,4.83123
0.33649,14.91110,4.78248
0.45388,14.73905,4.15274
-0.28005,14.53705,4.43009
0.11844,14.77473,4.52371
-0.13683,14.89297,4.60195
-0.85646,14.94275,4.84611
-0.33796,14.67265,4.57413
-0.11804,14.02896,4.37946
0.03358,14.49752,5.14266
0.23136,14.57997,4.75239
-0.03991,15.13590,4.90870
0.15382,15.42429,5.16443
-0.32304,15.00577,4.66393
-0.74230,14.22303,4.23197
-0.29072,14.44975,3.66527
-0.92553,14.47394,4.71138
-0.04237,14.65313,4.46884
0.56354,14.75805,5.31767
-0.28853,14.54792,5.40427
-0.09270,14.39313,4.93840
0.40555,14.65936,4.40379
-0.25335,14.63869,4.04848
-0.55586,14.38943,4.64964
0.13099,15.06806,4.89553
-0.05557,14.92668,5.34426
-0.63683,14.16124,4.23379
-0.16159,13.91603,4.51440
-0.06322,14.46096,4.44178
0.22782,14.37635,4.79200
-0.01012,14.72056,5.01237
0.31520,15.08833,4.60575
0.04864,14.86465,5.34634
-0.44207,15.03083,4.58977
-0.13472,14.32819,4.04150
-0.58636,14.34752,3.93254
-0.32306,14.95749,4.65838
-0.21831,14.54264,4.34865
0.20273,14.64435,5.02386
-0.32473,14.38404,4.84870
-0.05047,14.40982,4.79062
-0.01793,14.53403,4.58952
-0.12622,14.87582,4.02657
-0.22210,14.65789,4.58614
0.22884,14.99127,5.00697
-0.04023,13.84203,4.58511
-0.24004,14.68649,4.05662
-0.55971,14.21171,4.51497
-0.61209,14.54194,4.33270
0.00309,14.41509,4.70953
0.26848,14.24566,4.97941
0.41710,14.98579,4.89198
-0.23006,15.07011,4.83833
-0.13832,14.48572,4.68203
-0.59533,14.44047,3.98921
-0.39378,14.08746,4.20642
-0.34713,14.64357,4.79285
-0.09751,14.40372,4.87446
-0.05516,14.55904,5.14213
-0.18435,14.45464,4.93830
0.11950,14.45772,5.01289
0.20059,14.68662,4.38797
-0.18093,14.67489,4.43754
-0.18924,14.81603,4.49956
-0.06461,15.38079,4.96186
-0.70330,14.73418,4.45850
-0.28253,14.15547,4.33616
-0.51152,13.93221,4.35051
-0.15618,14.44049,4.32091
-0.00538,14.24536,4.86364
0.07331,14.76214,5.00563
0.60084,15.03058,5.46909
-0.05517,15.24768,5.18947
-0.72571,14.54165,4.43281
-0.09251,14.46028,4.13110
-0.35062,14.43172,4.54393
-0.39571,14.55586,4.75481
0.18549,14.88661,4.39206
0.16580,14.17753,4.84988
-0.29100,14.64903,4.71144
-0.04858,14.62379,4.68774
0.82933,14.82746,4.27202
-0.50301,14.47934,4.33750
-0.06506,14.88905,4.23598
0.20183,15.30953,4.89285
-0.67569,14.08127,4.48827
-0.21674,14.10120,4.31566
-0.33525,14.10108,4.41453
-0.17283,14.41147,4.53868
-0.15886,14.32666,4.77207
0.16239,14.89164,4.72327
0.21783,15.21637,4.83775
-0.23205,14.62882,4.80440
-0.01633,14.51055,4.41199
-0.52998,14.49383,3.91606
-0.64953,14.83821,4.03811
-0.06025,14.71636,4.74474
0.01283,14.84057,4.85687
0.42989,14.12319,5.35669
-0.10945,14.76797,4.08159
-0.52446,14.14906,4.93186
0.25280,15.41430,4.46890
-0.32173,15.19650,4.38416
-0.03982,15.08904,4.55327
-0.13400,14.85481,4.53450
-0.43716,14.52424,5.01323
-0.29254,14.43711,4.46291
-0.10662,14.51324,4.46981
-0.16226,14.18843,4.35563
0.17766,14.72475,4.83599
0.44022,14.65437,4.76380
0.29707,14.73339,5.02486
-0.41444,15.06090,5.06350
-0.95767,14.73064,4.70070
-0.50569,14.11248,4.13380
-0.41801,14.48811,4.21370
-0.28503,13.98534,4.49231
-0.03436,14.41693,5.08319
0.35428,14.63158,4.99531
-0.13296,14.28170,4.72344
0.11401,14.73048,4.85180
0.41925,14.79007,4.18282
-0.65546,14.90570,4.26838
0.12443,14.73600,4.45687
-0.06021,14.74168,4.57148
-0.43151,14.75286,4.80138
-0.30822,14.21111,4.32158
-0.27134,14.73608,4.43934
-0.04498,14.38560,4.61549
0.09095,14.52967,4.53741
0.42881,15.23838,4.51003
-0.01217,14.60821,5.11295
-0.05555,15.22399,5.01248
-0.64468,14.51001,4.59382
-0.15361,14.05612,3.54328
-0.36301,14.73044,4.20890
0.10702,14.51811,4.60447
0.53841,14.46156,4.64007
0.21899,14.56853,5.19731
0.32765,14.54625,4.91727
-0.02860,14.28427,4.27154
0.20562,14.54676,3.97710
-0.52210,14.47562,4.38267
0.00273,14.84260,4.50544
0.02598,14.62496,4.96494
-0.27263,14.49853,4.36507
-0.14232,14.67633,4.40174
0.06936,14.41887,4.63328
0.56393,14.87371,4.16837
0.04679,14.72653,4.58385
0.00593,14.74331,4.84714
0.17420,14.69199,5.41011
-0.34606,14.96378,4.64204
-0.58103,14.60272,4.23910
-0.36585,14.40264,3.72559
-0.49560,14.40479,4.50915
-0.22767,14.29231,4.03402
-0.14666,14.79964,4.92806
0.13417,14.61036,4.97525
0.59617,14.44113,4.73325
-0.08312,14.30350,4.18235
0.04170,14.51491,4.33423
-0.26695,14.63581,4.78449
0.17354,15.70875,4.90348
-0.04194,14.38484,4.61803
-0.16587,14.41857,4.83134
-0.21402,14.21553,4.55634
-0.35908,14.96674,4.28788
-0.14224,14.25754,4.54815
0.30041,14.64149,4.62061
0.23626,14.88425,4.71270
0.22624,14.95180,4.94185
-0.37197,15.22320,4.58676
-0.96753,14.55941,4.86011
-0.26634,14.36579,3.55496
-0.33590,14.65044,4.05036
-0.25026,14.19784,4.70730
0.52594,14.55349,4.69897
-0.27381,14.43225,4.82396
0.33838,14.41219,5.14721
0.03543,14.40139,4.78350
0.23331,14.98334,4.37182
-0.39894,14.72045,4.65056
-0.28706,15.44325,4.71305
-0.27198,14.93228,4.80103
-0.94114,14.06286,4.84014
-0.63825,14.32012,4.52796
-0.35307,14.76957,3.93001
-0.34908,14.40746,4.37015
0.06799,14.78022,4.19565
0.42357,14.87849,4.59822
0.39055,15.18037,4.94427
-0.30297,14.54499,5.10120
-0.46197,14.88166,4.62059
-0.35209,14.59661,4.43903
-0.16470,14.32839,4.42199
-0.14290,14.02056,4.47191
0.73256,14.68299,5.35496
-0.29768,14.59334,5.10701
-0.15131,14.67001,4.79923
0.10799,14.78025,4.50812
0.22623,15.10821,3.85620
-0.22890,15.07084,4.49217
0.01240,15.14338,5.16786
0.14695,14.61614,4.57973
-0.43347,14.69560,4.50959
-0.55298,14.19572,4.63073
0.05265,14.36542,3.98420
-0.14109,14.16759,4.13812
0.08203,14.77705,4.55058
0.12351,14.94847,5.39587
0.18476,14.80501,4.96216
-0.13853,14.83932,4.64675
-0.35169,14.58857,4.14985
-0.38409,14.45590,4.06287
-0.28641,14.50934,4.30076
0.28639,14.73456,4.67592
-0.02410,14.69217,4.88243
-0.36698,14.43544,4.88015
-0.38659,14.48075,4.92785
0.04010,14.69590,4.11430
-0.12401,14.81151,4.13612
-0.06343,15.27398,4.66824
0.44122,15.34142,4.81641
0.21373,14.42959,4.78320
-0.39760,14.44996,4.45865
-0.58665,13.80877,4.92965
0.23866,14.35086,4.61982
-0.41001,14.78017,4.58974
0.24261,15.16951,4.79510
0.09664,14.92133,4.57039
-0.33456,15.06798,4.94458
-0.51322,14.68705,4.63318
-0.63515,14.61440,3.85920
-0.27778,14.44174,4.07170
-0.26731,14.97207,4.51928
0.85312,14.98551,4.87693
0.38762,14.49970,5.18630
-0.50893,14.07056,5.45972
-0.28097,14.04855,5.08051
0.32450,14.64443,4.57920
-0.57576,14.56043,3.83714
0.09811,14.82156,4.91357
-0.45555,15.24021,4.53644
-0.18014,14.24876,4.98536
-0.29818,14.24066,4.79495
-0.51224,14.42427,4.73156
0.42706,14.74562,4.82497
-0.24612,13.98354,4.81096
-0.35302,14.84219,4.80237
0.26387,14.78842,5.01114
-0.29173,15.21506,4.92325
-0.59931,14.38534,4.38492
-0.66525,14.38279,4.11243
-0.32639,14.75519,4.35057
-0.73547,14.67589,4.89600
0.01237,15.20944,4.70991
0.19803,14.86765,4.86015
-0.42936,14.07158,5.04540
-0.14894,13.71898,4.84896
0.26337,15.04308,4.62369
-0.15201,14.81718,4.46473
-0.16309,15.22910,4.71760
0.16010,15.11320,4.91116
-0.05129,14.19022,4.94380
-0.51664,14.80330,4.86708
-0.24376,14.32066,4.54293
-0.19847,15.03236,4.04527
-0.22721,15.05390,4.95325
0.11175,14.91846,4.92442
0.01401,14.96346,5.38454
-0.49017,15.31414,5.09228
-0.17903,14.92198,4.45245
-0.48305,14.41116,4.11165
-0.24125,14.47571,4.49829
-0.23790,14.37673,4.83905
0.04909,14.65344,4.74936
-0.25429,14.91273,5.61584
-0.40057,14.23832,5.24631
-0.03021,14.48977,4.91819
0.26050,14.65067,4.59316
-0.58830,14.58925,4.34459
-0.03138,14.99846,4.14524
-0.35014,14.85096,5.08952
-0.15216,14.17069,4.82001
-0.44391,14.27265,5.04647
-0.46174,14.30137,4.51720
-0.12797,14.35454,4.55867
0.02547,14.04350,4.86540
0.32991,15.22671,4.67573
-0.23447,15.29505,4.67124
-0.41111,15.33137,5.25584
-0.60253,14.26467,4.54264
-0.17752,14.75036,3.92028
-0.53993,14.62053,4.08799
-0.23931,14.04970,4.35279
-0.03786,13.95003,5.22285
-0.01413,15.06819,5.37256
-0.15663,14.19636,4.64558
-0.18229,14.62000,4.83093
-0.03914,14.96712,4.71489
-0.31570,15.13077,4.84202
-0.11818,15.13100,4.33129
-0.28475,14.68178,4.83014
-0.65002,14.65956,4.94453
0.02231,13.98726,4.56985
-0.36440,13.83810,4.20166
-0.50443,14.73556,4.63867
0.05429,14.37304,5.31141
0.22257,14.73250,4.40168
0.24182,14.78572,5.05176
0.02956,15.04298,4.82109
-0.78762,14.60626,4.39325
-0.59307,14.79554,3.95178
-0.92612,14.22505,4.39573
0.02999,14.61638,4.67746
-0.14908,14.83361,5.04211
0.47207,14.31935,4.99255
-0.24945,14.20712,4.99266
-0.54877,14.35191,4.58255
0.16028,14.96694,4.20555
-0.44274,14.68162,4.61659
0.20752,15.16955,4.48211
0.04148,14.80227,5.10168
-0.62207,14.31762,4.88108
-0.22749,14.07191,4.53457
-0.33569,14.08603,4.52583
-0.14092,14.43881,4.32746
-0.17530,14.32251,4.81782
0.28022,14.79394,4.61619
0.21063,14.65270,4.96586
0.27081,15.02517,5.08796
-0.70568,14.50717,4.32309
-0.57686,14.43945,3.99587
-0.56791,14.47005,4.46546
-0.62575,14.50631,4.95130
-0.00920,14.36188,4.75156
0.13769,14.77356,5.21927
-0.20583,14.43527,5.09498
-0.11093,13.99817,4.60361
-0.15507,14.45022,4.26094
-0.67956,14.93616,4.42705
-0.21740,15.36435,4.86301
-0.13120,14.38767,4.67551
-0.01207,14.46949,4.69822
-0.41289,13.90581,4.11784
-0.71137,13.95959,4.33793
0.00327,14.03181,4.62000
-0.02173,14.19252,4.90423
0.06398,14.74897,4.76468
-0.31907,14.75453,5.39002
0.33623,15.29040,5.26222
-0.60804,14.65062,4.97109
-0.44302,14.26483,3.71961
-0.04462,14.33706,4.61045
-0.30348,14.21870,4.61281
-0.37022,15.15870,5.03990
-0.00903,14.53421,5.28145
-0.13056,14.12550,4.77202
-0.50207,14.48161,5.02409
-0.19980,14.91100,4.20499
-0.42435,14.73594,4.22614
0.03894,14.63864,4.85896
-0.26837,14.83357,5.14085
-0.79454,14.65653,5.08503
-0.64274,14.36309,4.92823
-0.43772,13.72242,4.37746
0.37509,14.09419,4.22279
-0.15264,14.08851,4.69978
-0.30688,14.74413,4.41622
0.15858,15.23706,5.43550
0.43049,15.09875,5.13498
-0.25892,15.02914,4.81205
-0.50869,14.67958,4.34237
-0.60334,14.69062,4.68838
0.03471,14.58296,4.56164
-0.17236,14.72473,4.09465
0.50095,14.55113,4.73851
-0.13790,14.49540,4.62161
-0.32824,14.61678,4.97198
0.03316,14.58280,4.56222
-0.47961,14.82019,4.71872
-0.36816,14.69866,4.78028
0.10244,15.24045,4.76693
-0.24901,14.69880,4.68126
-0.18008,14.34044,4.35318
-0.72758,13.61852,3.95815
0.08788,15.16170,4.29086
-0.01720,14.81397,4.72148
-0.09413,14.71550,4.43494
-0.03191,14.99732,5.18598
0.17350,15.03653,5.43318
-0.22373,14.36527,4.90572
-0.48945,14.71607,4.41600
-0.29599,14.65920,4.64959
-0.29146,15.39624,4.70275
-0.13704,14.48711,4.33321
0.23791,14.70364,4.93136
-0.28457,14.15636,5.02656
-0.75607,14.22210,4.96396
0.03752,14.46743,4.32546
-0.15514,14.85135,4.57807
-0.31207,15.17873,4.84893
0.24437,14.74362,4.64901
-0.10216,14.08647,4.32691
-0.60932,14.29027,4.36803
-0.44401,14.07514,4.68894
-0.03034,14.63660,4.58478
-0.31141,14.49001,4.80158
-0.04062,14.70465,4.81240
0.56139,14.90723,5.32073
-0.34825,14.55548,5.06975
-0.22377,14.17712,4.83356
-0.70374,14.29369,4.42314
-0.49655,14.48824,4.62486
-0.09585,14.88048,4.67304
-0.40758,14.67466,4.63594
0.06920,14.23933,4.84868
-0.73351,14.22608,4.91866
-0.18421,14.17776,5.14480
-0.10202,14.40651,4.52034
0.28626,14.87501,4.04759
-0.57208,15.12657,4.39158
-0.12044,15.36913,4.40327
0.20182,14.31811,5.22663
-0.15160,14.63787,4.67901
-0.58834,13.79407,4.34610
0.09078,14.17740,4.22393
-0.18370,14.32405,4.81261
0.12413,14.55568,4.67479
-0.31863,14.77048,5.27653
0.18362,15.01854,5.20625
-0.29416,14.94582,4.72686
-0.66642,14.28552,4.44659
-0.62614,14.11347,4.22853
-1.09290,14.06324,3.93020
-0.47882,14.18972,3.92198
0.78121,15.50113,5.15396
-0.19798,14.58143,5.10875
0.01192,14.42332,4.99847
-0.24057,14.34460,4.71870
0.04757,14.86709,3.95458
-0.43878,14.93487,4.57722
-0.30420,15.25969,4.27971
0.78917,14.50765,4.80212
-0.21171,14.40389,4.97254
-0.15663,14.64693,4.96516
-0.31141,14.53125,4.51427
-0.06375,14.29101,4.59690
0.05183,14.39839,4.44565
0.21911,14.67472,5.49467
0.42849,15.02491,5.65019
-0.45845,14.61928,5.06186
-0.78637,14.52354,4.61735
-0.04251,14.41023,3.75086
-0.64315,14.78863,4.38057
-0.33859,14.95483,4.69975
-0.03744,14.62974,5.32950
-0.08988,14.54254,5.28959
-0.20939,14.37893,5.14494
-0.36795,14.21545,4.68648
0.05145,15.07933,4.20216
-0.14577,14.39018,4.66679
-0.12884,15.05119,4.20196
0.46076,14.39548,4.81849
-0.62462,14.24395,4.35392
-0.61191,13.99551,4.34449
-0.15742,13.70429,4.26512
-0.29901,14.43845,4.45783
-0.40876,14.37030,5.36734
0.50135,15.39489,5.08749
0.17202,14.79082,5.41609
-0.64467,14.95256,4.62227
-0.43464,14.11376,4.75493
0.03562,14.22923,4.59795
-0.69995,14.46433,4.26420
-0.39328,14.18728,4.90110
-0.12662,14.42730,4.73863
-0.04584,14.66442,5.44161
-0.21753,13.82335,4.87011
-0.18333,14.11998,4.16024
0.40151,14.84205,4.87026
-0.27700,14.36824,4.58221
0.58462,15.19802,4.31607
0.31850,14.69551,4.57636
-0.35598,14.35982,4.70554
-0.72834,13.96208,4.32653
-0.25604,14.48681,4.77689
-0.19092,14.66181,4.54146
-0.29773,14.83970,4.77502
0.36174,15.18659,4.57970
0.38183,14.70633,5.13859
-0.21970,14.74899,4.99341
-0.92729,14.29780,4.57246
-0.58792,14.41626,4.15894
-0.21814,14.92142,4.48502
-0.30311,14.52880,4.86731
0.07182,14.41006,4.69151
-0.51591,13.76946,5.14301
-0.16125,13.87677,4.79522
-0.21463,14.65063,4.29394
0.05369,14.78286,4.18594
-0.27450,14.92384,4.85685
-0.09170,14.94372,4.56835
-0.11041,14.55417,5.22216
-0.49478,14.48716,4.97257
-0.62961,14.00747,4.27543
-0.38744,13.80088,4.47361
-0.15816,14.78618,4.33968
-0.15702,15.11362,4.82535
-0.06956,14.54595,5.24659
0.15050,14.82832,5.17351
-0.49972,15.27497,4.67752
-0.24505,14.65634,4.62313
-0.37758,14.33195,3.88029
0.04569,14.74383,4.46548
-0.53718,14.49562,4.94727
0.05841,14.82260,4.94255
-0.22418,14.07722,5.52318
-0.27296,14.23580,4.80764
-0.22980,14.97277,5.17437
-0.31695,15.27773,4.85163
-0.54521,14.63707,3.96892
0.60420,15.47179,4.46586
-0.03470,14.39926,4.85463
-0.78318,14.38322,4.55158
-0.39111,14.07243,4.66213
-0.10878,14.39133,3.93724
0.06700,14.00963,4.37144
0.17938,14.63347,4.77530
0.40718,15.38177,4.56515
0.22554,14.58282,5.43634
-0.10826,14.94749,5.24956
-0.18969,14.21068,4.56863
-0.59458,14.44253,3.98134
-0.24160,14.78655,4.75019
-0.25956,14.74144,4.38825
0.34738,14.72960,5.00408
-0.23351,14.21053,5.29478
-0.05673,14.10037,4.87832
-0.27196,14.46470,4.59408
0.52550,14.76611,4.25459
-0.32775,14.88494,4.82226
0.06720,15.41009,4.64491
0.04816,14.43053,4.91135
-0.89067,13.68319,4.66858
-0.35102,14.37464,4.59519
-0.13646,14.18232,4.37205
-0.29951,14.11725,4.61249
-0.01742,14.59157,4.88126
0.39272,15.18731,4.89144
0.00796,14.76696,5.37039
-0.11070,14.77541,4.71767
-0.70151,14.16870,4.24359
-0.04997,14.23030,3.96711
0.08766,14.52100,4.59512
-0.49009,14.25630,4.49797
0.10952,14.45894,5.00936
0.03604,14.17093,4.65420
0.03246,14.27814,4.60189
-0.06684,14.41383,4.43187
-0.14249,15.07742,4.02462
-0.19618,14.80043,4.95685
0.17697,15.55136,4.60825
-0.08309,14.85143,4.51014
-0.33518,14.41961,4.95752
-0.08108,14.06379,4.80457
-0.32941,14.14014,4.47864
-0.49707,14.36313,4.44659
0.15106,14.85954,4.60341
-0.18160,15.20705,4.87916
0.41643,14.92716,4.95011
-0.43489,15.30057,5.12937
-0.52650,14.54966,4.55592
-0.16847,14.22183,3.77694
-0.14571,14.64234,4.63166
-0.71442,14.99875,4.35161
-0.22210,15.11670,5.19489
0.14291,14.80309,5.34728
0.07311,14.67062,4.94564
0.07802,14.98131,4.85391
-0.14269,15.29758,4.56279
-0.25721,14.50130,4.66740
-0.41524,14.84597,4.47433
0.00543,14.67617,4.96182
-0.37031,14.63140,4.89322
-0.41832,13.92827,4.64102
-0.60227,14.93349,4.70972
-0.32002,14.73548,4.47114
-0.20288,14.66204,4.54015
-0.08723,15.09672,4.87539
0.16074,14.95547,4.61752
-0.34625,14.79753,5.09614
-0.57199,14.22182,4.79665
-0.27219,14.18505,4.11557
0.00822,14.92166,4.28735
-0.38097,14.44462,4.47084
-0.05740,14.23818,4.25759
0.34607,14.58774,4.94505
-0.15093,14.22407,4.77670
-0.08967,14.35126,4.53397
-0.16198,14.80858,4.52066
0.15883,14.36497,4.23184
0.05301,15.62414,4.54186
-0.04402,14.79114,4.88647
-0.72345,14.24429,4.76187
-0.49582,14.32913,4.33201
-0.11242,14.57735,4.36168
-0.21030,14.68727,4.36669
0.30726,14.56245,4.80520
0.02485,14.59676,4.80046
0.00563,14.37968,4.94569
-0.15862,14.75829,4.86667
-0.57413,14.39441,4.28683
-0.60086,14.49035,3.98718
-0.27927,14.02979,4.16079
-0.12980,14.85146,4.19614
0.08010,14.77499,4.20915
-0.04253,14.42187,5.03533
-0.14001,13.78680,4.69729
-0.88425,14.58944,4.56657
0.43701,14.57693,4.59867
-0.40598,14.98981,4.49496
-0.17654,15.11369,4.82445
0.20908,14.93581,4.70914
-0.45763,13.97656,4.33253
-0.38062,14.21349,5.03663
-0.17833,14.04985,4.28367
-0.42136,14.15725,4.42659
-0.16548,14.38308,4.37301
-0.39712,15.09507,4.79460
-0.10604,14.88596,5.66201
0.04855,14.94521,4.77867
-0.22174,14.64902,4.64365
-0.39202,13.97143,4.31484
-0.98296,14.11907,4.46790
-0.56782,14.66382,4.82791
0.19556,15.34933,4.95696
0.02102,14.01676,4.69639
-0.26586,14.40396,5.00343
-0.24207,14.69492,4.68925
-0.17496,14.80484,3.86988
-0.42678,14.69196,4.51471
0.13502,14.81284,4.59232
-0.14290,14.29664,4.95817
-0.69811,14.22414,4.88656
-0.45798,14.24096,4.22777
-0.14277,14.65841,4.51706
0.15949,14.49697,4.35272
0.05588,14.80490,4.71390
0.49153,14.27963,5.24543
-0.10426,14.47819,5.04980
-0.60451,15.22980,5.07135
-0.62080,14.75786,4.56575
-0.05557,14.70622,4.11240
-0.15922,15.09616,4.59468
0.04134,14.49749,4.44892
0.11237,14.30271,4.36417
-0.67536,14.23611,5.13219
-0.56122,14.36862,4.80772
0.44086,15.13529,4.86440
0.11784,14.85016,4.34947
-0.49981,14.91289,4.42267
0.01014,15.02824,4.58216
-0.56016,14.38540,4.34509
-0.34909,14.79199,4.79770
-0.34329,14.01245,4.34213
-0.03902,14.33387,4.61772
-0.09070,13.90184,4.55564
-0.39921,15.02345,4.95601
-0.27001,14.60274,5.35777
0.14094,14.95228,5.00577
0.16161,15.12725,5.49683
-0.66261,14.87397,4.48677
-0.24833,14.28872,3.72517
-0.20256,14.21270,4.56136
-0.55546,14.70449,4.54262
0.05445,14.83905,4.82755
-0.32709,14.30297,5.07002
0.20654,14.36430,4.89346
-0.29629,14.47790,4.52054
-0.19381,14.25163,4.28151
-0.48510,14.78852,3.89885
0.28928,14.90587,3.82340
-0.05612,14.61550,4.74391
-0.65514,14.39617,4.69291
-0.26281,14.28256,4.12365
-0.38735,14.15277,4.09316
-0.12182,14.27640,4.73758
-0.09341,14.33557,4.99238
0.03863,15.27541,4.90981
-0.27817,14.84104,5.08338
-0.11635,15.29259,4.23066
-0.57706,15.09258,4.61908
0.08433,14.08622,4.16219
-0.48404,14.42606,4.34261
-0.24615,14.67118,4.51242
-0.27834,14.35765,4.64527
-0.76459,14.51668,4.63398
-0.51779,14.60381,5.20405
0.06780,14.53239,4.52849
0.14331,15.39318,4.69542
-0.55675,14.99046,4.27763
0.13632,15.64995,3.95487
-0.16965,15.31136,4.14296
-0.71362,14.36616,4.60048
-0.85092,13.72290,4.69892
-0.68328,14.24481,5.07432
-0.53913,14.10897,4.51945
0.36467,14.74802,4.50581
0.23639,14.90628,4.20336
0.21656,15.43396,4.69199
-0.18907,14.46902,4.82938
-0.95983,14.50726,4.85907
-0.49875,14.14249,3.91034
-0.30596,14.58505,4.12409
0.06362,14.31856,4.28617
-0.21992,14.41765,4.86530
-0.37654,14.40115,5.11055
-0.01930,14.24522,4.86403
-0.22905,14.76524,4.53329
-0.06384,14.90301,4.12908
-0.60744,14.98252,4.36855
-0.01291,15.15360,4.41299
0.04730,14.15658,4.73049
-0.95373,14.23507,4.67315
-0.59899,13.76022,4.22942
-0.19670,14.47039,4.48003
0.12335,14.18986,4.43577
-0.29284,14.23580,4.46204
-0.23259,15.03470,4.72876
0.08624,15.34430,5.07106
0.16824,14.81890,4.85658
-0.46799,14.81977,5.03033
-0.27700,14.42247,3.84726
-0.67364,14.48779,4.40924
-0.42854,14.69910,4.46407
-0.43274,14.78904,4.87429
-0.59049,14.42766,5.09710
-0.18406,14.38497,4.71533
-0.32028,14.24116,4.79193
0.16787,15.02538,4.46295
-0.78941,15.00511,4.02197
-0.13335,15.22151,3.70284
0.23460,14.92034,4.78895
-0.68889,14.08132,4.48612
-0.26457,14.18265,4.12492
-0.33679,14.09719,4.77111
-0.24135,14.43036,4.44974
-0.22468,14.91877,4.49408
0.29872,15.10372,4.84231
0.41217,15.48209,4.88175
-0.46204,15.05726,5.10537
-0.41524,14.10626,4.43100
-0.00642,14.31785,3.66317
-0.88361,14.68947,3.88015
-0.23635,14.15986,4.25798
-0.11320,14.35387,4.87316
0.08932,14.04819,5.09932
0.00278,14.19843,4.82109
0.13039,14.74608,4.70824
0.02709,15.07104,4.60719
-0.08222,14.68475,4.27813
-0.51201,15.30645,4.79942
0.10592,14.53702,5.14233
-0.84539,14.56489,4.70769
-0.34341,14.05004,4.76143
-0.16005,14.93953,4.30110
-0.45248,14.40864,4.77527
0.17248,14.71227,4.90681
0.21342,15.22926,4.73523
0.11733,15.42155,4.85993
0.19365,14.58548,4.73673
-0.73435,14.37862,4.18636
-0.60284,14.39251,3.98187
-0.59225,14.55299,4.57985
-0.17857,14.17091,4.81842
0.13717,14.32538,5.20577
-0.03457,14.60007,4.82385
0.07335,14.24120,4.81088
0.20540,15.01759,4.48579
0.62457,14.88155,4.05011
-0.73209,14.50798,4.31578
0.19216,15.42953,4.73857
0.18610,15.01975,5.17095
-0.86820,14.28233,4.27101
0.14121,14.67029,4.19074
0.33013,14.55700,4.13072
0.05242,14.72100,4.25495
-0.19791,14.44431,4.65566
0.23539,14.70609,4.89285
0.04810,14.87564,5.24840
-0.53614,14.58046,4.68022
-0.26701,13.86845,4.57197
-0.16320,14.74966,4.23466
-0.10855,14.79429,4.91034
-0.06501,15.12205,4.67035
0.28711,14.53096,5.03008
-0.07185,14.63042,4.98138
-0.32304,14.23309,4.50245
-0.19824,14.54374,4.31346
0.27468,14.79680,4.57688
-0.11539,14.84535,4.56247
0.11793,14.87898,4.48189
-0.14059,14.49815,4.57987
-0.43245,14.67362,4.63722
-0.10712,13.86008,4.49902
0.07303,14.06895,4.28086
0.44112,14.22916,4.58620
0.30568,14.74867,4.88342
0.03590,15.54243,5.11311
0.20286,14.97470,5.12273
-0.21911,14.80870,4.89985
-0.34624,14.72193,4.23209
0.10799,14.69317,4.05735
-0.82078,14.36936,4.31096
0.22700,14.67583,4.42211
0.17190,14.33390,4.76957
-0.29878,13.97327,4.55930
-0.48574,14.32359,4.69552
0.39543,14.87042,4.31192
0.60936,15.02262,4.11323
-0.43813,14.43604,4.56254
-0.27735,15.13410,4.07333
0.29958,14.51980,5.09607
-0.45168,14.52956,4.61642
-0.17248,14.52078,4.44711
-0.36569,14.65913,4.33475
-0.24285,14.46987,4.16861
0.01622,14.39005,4.85006
0.05732,15.29037,5.46021
-0.12524,15.30535,4.82184
-0.11314,14.89301,4.57048
-0.47281,14.42799,3.96055
-0.12472,13.98762,3.62985
-0.43828,14.43623,4.56191
0.13296,14.15332,4.67519
0.06347,14.56810,5.29776
-0.21184,14.06066,4.91190
-0.09848,14.09456,4.92838
-0.08084,14.43685,4.26641
-0.23678,14.39425,4.68691
-0.67411,14.74784,4.66276
-0.04248,14.91942,5.01977
0.17213,15.49841,4.96361
-0.77309,14.70309,4.71114
-0.29806,14.26759,4.92750
0.27285,14.70799,4.16275
-0.14386,14.49090,4.28757
0.77176,14.50360,5.16500
0.40484,14.84318,4.83658
0.20847,15.17090,4.79202
-0.00006,14.73918,4.51312
-0.06630,14.66319,4.40673
-0.05829,13.94039,4.24590
-0.13553,14.87528,4.02841
-0.85070,15.21157,4.34923
0.42342,14.96117,5.03311
0.21914,14.90475,5.24676
-0.04440,14.55778,5.45901
-0.40676,14.62633,4.94060
0.06330,14.25906,4.34641
-0.23579,14.73065,4.42085
-0.26530,15.01596,4.18984
0.15380,14.66500,4.89797
-0.92857,13.57081,4.76638
-0.31845,13.64960,4.75422
-0.45779,14.15559,4.11905
-0.15532,14.35592,3.51541
0.45933,14.60291,4.39178
0.20318,14.17916,5.12672
-0.02149,14.77545,5.31226
-0.39056,14.77904,5.24897
-0.46810,14.54220,4.54533
-0.24041,14.46309,3.87436
-0.66452,14.60698,4.59994
-0.64362,14.46278,4.89318
0.09619,14.71907,4.91914
-0.77704,14.73723,4.82498
-0.44093,14.36397,4.72481
-0.12989,14.75042,4.54481
-0.01887,14.90860,4.04713
-0.77604,14.91762,4.60697
-0.04646,15.27583,3.93725
-0.37023,15.03856,4.46853
-0.72230,14.75941,4.28296
0.01031,13.94219,4.52159
-0.85854,14.33564,4.92038
-0.02919,14.85971,5.08051
-0.07678,14.07497,4.70628
0.37347,15.50579,4.74624
0.51458,15.96023,4.57893
-0.15895,14.93583,4.65783
-0.60329,14.64278,4.98985
-0.41623,14.07289,4.31434
-1.09581,14.53393,4.43358
-0.14196,15.22186,3.70098
0.74293,14.54996,4.86341
0.09344,14.82484,4.87164
-0.16906,14.29730,5.30256
-0.85150,14.74541,4.48807
-0.21767,15.00699,4.21739
-0.06252,15.18703,4.21601
0.95906,15.98995,4.34848
0.27358,15.21431,4.43522
-0.60325,14.57768,4.40771
-0.74510,13.98563,4.15699
-0.47908,14.81510,4.38500
-0.04196,14.77991,4.60769
0.54637,15.23924,4.38112
1.39398,15.13667,4.39441
0.33767,15.05334,4.46500
-0.40828,15.25748,4.69696
-1.25936,13.99885,5.16711
-0.04711,14.58574,3.89526
-0.14156,13.96369,4.49036
0.30493,14.83878,4.25695
-0.10913,14.29484,3.89487
0.24317,14.13041,4.39814
-0.05907,14.77423,5.00274
0.21885,14.62758,4.41621
0.86657,14.79641,4.09052
0.19486,14.67239,4.46557
0.38382,15.44678,3.76883
0.61033,15.05336,4.58288
-0.61731,14.17618,5.12775
-0.54848,14.10635,4.52710
-0.40594,14.21642,4.33616
-0.20021,14.42806,4.07744
0.19545,14.52670,3.75830
0.43250,15.01745,4.29162
-0.23162,14.84265,5.01360
-0.94732,14.95959,4.79413
-0.79491,14.18348,4.19875
-0.12321,14.54424,3.90056
-0.17238,14.65095,4.57399
-0.12199,14.41960,4.41572
0.23598,14.40237,4.58515
0.04824,14.83460,4.84220
-0.53278,14.41453,4.78891
-0.11903,15.22154,5.05171
1.11642,14.76878,4.42103
-0.26606,15.07200,4.48596
-0.14598,15.15390,4.50950
0.37688,14.93903,4.53787
-0.69861,13.38449,4.14736
-0.07047,14.02493,4.01345
0.26749,14.19053,4.64933
0.48790,14.39089,4.45695
-0.31448,14.69640,4.71856
0.38657,15.56021,4.35598
0.19183,15.00093,4.94684
-0.02271,14.86583,4.68366
-0.22094,14.59458,5.00288
-0.08773,14.46234,4.09246
-0.15915,14.73893,4.29843
-0.03784,15.05784,4.39821
0.13930,15.01235,4.56689
-0.50470,14.89126,4.90047
-0.28284,14.82900,4.80609
0.15458,13.99316,4.38941
0.40121,14.85956,4.37739
0.06435,14.40539,4.01507
0.02995,15.12525,4.21730
-0.34182,14.69320,4.76072
-0.14148,14.09465,4.61474
-0.50938,14.33492,4.62813
-0.17844,14.67629,4.40057
0.33720,14.06847,4.40075
-0.16935,14.67269,4.75715
-0.41044,14.96117,4.67928
0.56359,15.29034,5.38338
0.07703,15.18624,5.47074
-0.38501,14.11979,4.63703
-0.13055,14.58664,3.26602
0.26862,14.41853,4.43991
-0.46021,14.94714,4.47312
-0.14830,14.89042,4.61040
0.10019,14.20654,5.01248
-0.32784,13.85454,4.36472
0.29790,14.74043,4.59564
0.39841,14.85887,4.38018
-0.34677,14.99806,4.02836
-0.35232,14.93281,4.48360
0.03293,14.73748,4.83199
-0.51777,13.88554,4.30449
-0.24542,14.35420,3.93252
-0.50031,14.52892,4.30447
-0.29408,14.34021,3.72651
-0.17121,14.69797,4.58416
0.29242,15.17433,5.03083
0.16776,14.51912,5.19631
-0.23852,15.02236,4.79751
-0.31972,14.47530,4.18441
-0.14519,14.05479,3.86010
-0.21256,14.70643,4.55882
-0.43844,14.73807,4.18357
0.10042,15.06742,4.55356
0.30427,14.76202,4.77953
-0.06450,14.23980,4.91297
0.11077,14.30198,5.02812
-0.00685,15.08187,4.54260
0.20647,14.91540,4.14619
0.20667,15.13488,4.68545
0.32612,14.95389,4.80784
-0.15003,14.62701,4.71089
-0.59571,14.11375,4.50453
-0.60703,14.28049,4.39244
-0.14710,15.14403,4.22694
-0.09722,14.56791,4.04655
0.44788,15.02715,4.54468
0.21623,14.63162,5.06345
-0.52627,14.64637,5.22586
-0.28813,14.68952,4.39394
-0.60342,14.77163,4.08334
0.07406,14.65515,3.98963
-0.27791,14.84090,4.70584
0.23955,14.75927,4.50742
0.07035,14.36633,5.29920
-0.47266,15.15207,5.12098
-0.23842,14.01450,4.55356
0.57162,14.93764,4.03596
-0.05155,14.60732,4.07925
0.38638,14.99913,4.44547
-0.28129,15.29319,4.67511
-0.36142,14.60396,5.03967
-0.50739,14.39889,4.17681
-0.47477,14.10516,4.11976
-0.02544,14.42919,4.25791
-0.37171,14.27982,4.19965
0.11537,14.86654,4.55256
0.74361,15.54606,5.17711
-0.54386,14.93757,4.59922
-0.56471,14.68130,3.98718
-0.29974,14.32211,4.19125
-0.16640,14.12970,4.38025
-0.68923,14.50811,4.59379
-0.26372,14.84715,4.30918
0.18827,14.30168,4.61888
-0.28102,14.82374,5.16735
0.09050,14.65722,4.98687
0.42624,15.08996,4.12963
-0.22010,14.56762,4.14476
0.33267,15.14848,4.48323
-0.01930,15.03285,4.53927
-0.32189,14.36706,4.23975
-0.02558,14.66624,4.33401
-0.10311,14.31331,4.43320
-0.25095,14.83570,4.37587
-0.50079,14.97655,4.63305
0.20965,14.81223,4.84529
0.35941,14.70803,4.75860
0.25712,14.98970,5.29448
-0.37272,14.91735,4.59479
-0.42942,14.53650,4.18423
-0.23520,14.73422,4.03304
-0.01151,14.18530,4.89309
-0.15397,14.43712,4.64430
0.09941,14.54627,5.39573
-0.32622,14.34956,4.70220
0.05378,14.04198,4.45995
0.30042,15.12816,4.98691
-0.58655,14.89402,4.92372
-0.23459,15.45346,4.54999
0.19567,14.99629,4.27142
-0.04637,14.75886,4.39076
-0.50074,14.38657,4.24584
-0.44826,14.11221,4.72414
0.05523,14.09786,4.75628
0.04403,14.40240,5.06146
0.05732,14.69690,4.39319
0.57314,14.91628,4.85682
0.23281,14.73303,4.68403
0.14760,14.75818,4.92144
-0.21094,14.23721,4.01435
0.05181,14.74823,4.04490
-0.60106,14.50505,4.53753
-0.31467,14.46286,4.25414
0.04849,13.38651,4.52861
0.06416,14.83964,5.45382
0.08883,14.20507,5.01715
0.61504,14.66284,4.51699
0.32296,14.27381,4.01242
-0.39663,14.79859,4.40079
-0.00916,15.42208,4.92461
0.07126,14.24215,4.77631
-0.51295,14.45454,4.47324
-0.43474,14.44578,4.81255
-0.15310,14.23058,5.03775
-0.01407,14.66774,5.33323
0.13008,14.61458,4.89925
0.16801,14.35170,5.31084
-0.23151,15.42863,4.72128
-0.06251,14.39598,3.82863
-0.09402,14.36242,3.40084
0.02866,14.87509,4.21437
-0.49820,14.68009,4.61614
-0.23778,14.79892,4.61549
-0.07718,14.42875,4.98230
-0.33672,13.90953,4.66344
0.21491,14.93384,4.68535
0.52901,15.23066,4.09698
-0.05875,15.24431,4.47656
-0.32503,14.78488,4.09675
-0.06262,14.83469,4.90754
-0.37194,14.20249,4.72273
-0.67138,14.19159,4.35612
-0.60727,14.03045,4.38664
-0.21110,14.21114,4.18985
-0.42049,14.06347,5.03207
-0.12946,14.71537,5.43838
0.13096,14.93328,5.09716
0.09289,15.01521,4.90524
-0.46518,14.74814,4.12066
-0.30411,14.25737,3.60872
-0.07582,14.20017,4.15791
-0.40580,14.39715,5.12037
-0.33108,14.49580,5.40704
-0.01357,14.40526,5.43065
0.06781,14.21166,4.30660
0.47257,14.73338,4.48872
0.35038,14.93986,4.19268
-0.13373,14.40950,4.13362
-0.22706,14.97661,4.75114
-0.20561,14.75076,4.92202
-0.75853,14.08817,4.46161
0.01716,13.91756,4.66084
0.03769,14.39794,4.41640
0.25918,14.41753,4.44394
0.22772,14.62963,4.37890
0.20479,14.79527,5.30643
0.27380,14.80694,4.82880
-0.28082,15.10895,5.24955
-0.22088,14.72349,4.09707
-0.75992,14.33808,3.43016
-0.31711,14.59686,4.02389
-0.29069,14.43185,5.13498
0.05782,14.21108,5.34462
0.07802,14.69153,5.09982
0.23498,14.73419,4.68003
-0.10140,14.83142,3.94519
0.22223,14.58188,4.37105
-0.30104,14.43518,4.77940
0.06104,15.01672,4.58717
-0.41640,14.77155,4.61120
-0.57099,14.48364,4.66627
-0.45082,14.08296,4.25033
-0.43736,14.81663,4.65935
0.21864,13.98264,4.73518
0.29806,14.65461,4.83284
0.09775,15.11548,4.56050
0.05654,14.86130,4.63301
0.00603,15.67428,4.89013
-0.53263,14.76345,4.41951
-0.34761,14.11983,3.91286
-0.29120,15.05638,4.59768
-0.83960,13.88607,3.86994
-0.13412,14.79342,4.91252
0.15760,14.63147,5.78789
-0.34892,14.42176,4.57126
-0.13514,14.61275,5.13133
0.05130,15.06295,3.59546
-0.15236,14.37356,4.05755
0.09676,15.37807,4.46280
-0.13600,14.95721,5.15470
-0.71763,14.08072,4.48363
-0.36363,14.37701,4.20890
-0.05729,14.50892,4.41738
0.03816,14.66123,4.31624
0.06958,13.92391,4.57686
-0.23476,14.83061,5.08146
0.11420,14.55369,4.99554
-0.04627,15.00592,4.74902
-0.38360,14.52138,3.91539
0.14062,14.66782,3.50807
-0.01036,14.72958,4.22938
-0.50999,14.69364,4.54240
0.36665,14.19758,4.84540
-0.19966,14.00356,4.93130
-0.42586,14.19909,4.79719
-0.13989,14.98382,4.97727
0.19136,14.68729,4.35630
-0.32957,14.87713,4.49831
0.22001,15.42686,4.36976
-0.18598,14.72448,4.40631
-0.65491,14.36432,4.19195
0.10001,14.05802,4.65958
-0.31211,14.23385,4.81147
0.55836,13.95225,5.01061
0.30857,14.48099,4.65253
0.00568,14.82349,4.59474
-0.29608,14.67132,5.20340
0.25115,15.06575,5.12024
-0.19376,14.78992,4.98721
0.28464,14.70243,3.83497
-0.15183,14.27336,4.74651
-0.57927,14.42983,4.36142
0.09623,14.29602,4.73272
0.16248,14.08420,5.11081
0.42889,13.88059,5.26995
0.66743,14.16840,4.80441
0.18671,14.49973,4.28207
-0.14087,14.73180,4.31819
-0.15582,14.88155,4.66777
0.80988,14.71053,5.40157
-0.00355,14.06295,4.70918
0.38686,14.48322,4.23460
-0.09414,14.34565,4.20376
-0.02851,14.45274,4.77971
0.10064,14.10535,5.01474
0.06234,14.64488,5.43524
0.54056,15.35886,4.92044
0.06678,15.16179,4.94960
-0.31217,14.55555,3.95973
0.04085,14.38280,4.17853
0.06532,14.26167,4.65179
0.09372,14.21377,4.95876
0.41956,14.58894,4.84737
0.41177,14.27845,4.93859
-0.07316,14.06766,5.07359
0.38710,13.90626,5.12907
0.74642,14.88853,5.25669
-0.29805,14.70648,4.61936
0.35925,15.49879,3.76128
0.63416,14.95350,4.89803
-0.00593,14.16109,4.71621
0.37574,14.51665,4.69692
-0.51515,14.18515,4.96603
-0.29222,14.09148,4.40422
0.12423,14.02014,4.55676
0.53019,14.08408,4.12803
0.84828,15.16827,5.63910
0.12098,15.62195,6.18476
-0.26508,14.91962,5.17935
-0.16417,14.29506,4.26726
0.13474,14.08532,4.09979
-0.10284,15.08522,4.24679
0.19165,14.75740,5.23804
0.31368,14.41906,5.76135
-0.08241,14.23411,5.30872
-0.42345,14.84786,5.12392
0.47947,14.87320,4.55374
0.36730,14.70060,4.12014
0.51071,14.52829,4.84735
0.32899,14.92739,4.98592
-0.65748,14.38814,5.05689
-0.53464,13.77488,4.39253
0.04824,14.06151,4.68052
0.39742,14.62796,4.59943
0.08755,15.05503,4.30568
0.33566,15.00102,4.81765
0.13554,14.64886,5.01203
-0.12162,14.79366,4.90941
-0.08327,14.86693,5.05732
0.10082,14.17413,4.54682
-0.11637,14.68010,4.31925
-0.19704,15.04173,4.28986
0.08010,14.21916,4.59520
0.06399,14.60649,5.02022
-0.34358,13.85452,5.40149
-0.43657,14.22785,5.30420
0.36946,14.89607,4.83078
-0.12609,14.92832,4.32925
-0.01543,14.16793,4.00099
0.19121,14.65346,4.93342
-0.60838,14.21674,4.83745
-0.83441,13.56857,4.70014
-0.28726,14.23001,5.16822
0.33634,14.95234,4.81249
-0.31210,14.22077,4.56639
0.18780,14.73823,4.69885
0.06889,15.08381,4.81519
-0.37864,14.81549,5.31998
-0.31849,14.73605,5.47349
0.14015,14.62237,3.83302
-0.48777,14.14000,3.90886
0.05023,14.73046,4.18956
-0.58597,14.46917,4.80265
0.00583,14.37586,4.95682
-0.35164,14.45154,5.07415
-0.02050,14.37332,4.99699
0.84694,14.75129,4.07537
0.45935,14.93133,4.18131
0.04869,14.68256,4.18222
0.18246,15.60038,5.27357
-0.41823,14.24606,4.83727
-0.56252,14.05524,4.90331
-0.49706,14.47592,5.03262
0.39633,15.01734,4.66945
-0.04956,14.58557,4.93072
0.16023,14.29614,4.69874
0.22456,14.90363,5.25152
-0.35494,15.06906,5.28160
-0.49789,14.23970,4.95406
-0.08797,14.41348,3.76686
0.01994,14.26364,4.36172
0.01754,14.34592,4.48213
-0.06750,14.49778,5.55499
-0.71285,14.45815,5.34710
-0.55011,13.99692,5.30881
0.05463,14.50256,4.74698
1.17334,14.87094,4.35300
-0.06962,15.19457,4.53272
0.02595,15.19344,4.12315
0.14316,15.11243,5.26052
-0.66263,14.20941,4.29484
-0.60783,13.76269,4.24486
-0.09992,14.34871,4.57062
-0.21078,14.44346,5.03406
0.04711,13.97590,5.29806
-0.55118,15.09408,4.95525
0.08280,14.58803,4.82513
0.51434,15.77769,4.48589
0.26469,14.74665,4.60617
-0.21818,14.24800,4.00478
-0.26415,14.52842,4.16693
-0.40084,14.51613,4.36722
-0.37700,14.60056,4.44884
-0.02062,14.41122,5.09963
-0.06182,14.41766,5.42827
0.05062,14.30011,4.78344
0.25643,15.18437,4.68330
-0.13313,15.23851,4.30113
-0.00966,14.91724,4.01302
0.48057,14.69216,4.45648
-0.78873,14.13706,4.90612
-0.57582,13.71910,4.19253
-0.11165,14.39475,4.61613
0.15098,14.74945,4.34729
0.05741,14.69135,4.81699
0.12751,14.70789,4.98449
0.13796,15.03691,5.78297
-0.01219,14.99306,5.19737
-0.40908,14.41814,4.70810
0.45252,14.40615,4.06082
-0.59956,14.61985,4.17293
-0.33979,14.73319,4.53723
-0.51222,14.34947,4.92720
-0.70695,14.16381,5.67459
0.22531,14.72431,5.46784
0.37437,15.16961,4.34775
0.49133,15.22675,4.19712
-0.16825,14.87732,4.42757
-0.42025,15.28263,4.92916
-0.02915,14.58829,4.92226
-0.16554,13.91471,4.54754
0.28534,13.93643,4.68883
0.11620,14.62483,4.55087
-0.24642,14.22916,4.50892
-0.15651,13.87826,4.78852
-0.02506,14.64980,4.50766
-0.05541,15.14180,5.23644
0.37856,14.60884,4.43654
0.24373,14.66112,3.86547
-0.31406,14.48658,4.17584
-0.78334,14.22102,5.02318
-0.82711,14.11416,4.44451
0.32739,14.75635,4.82687
-0.02309,14.64855,4.51202
