# Data format: "%float(LinearAccelX),%float(LinearAccelY),%float(LinearAccelZ)"
0.03542,-0.10792,-0.04043
0.00118,-0.03099,-0.05055
-0.00433,-0.03574,-0.01852
-0.00251,-0.01310,-0.04437
0.00423,-0.03070,-0.03805
0.01626,-0.00448,-0.03217
-0.00345,-0.00971,-0.02982
0.00782,-0.03160,-0.06477
0.00476,-0.02697,-0.01048
-0.00650,-0.03626,-0.03798
0.01570,0.00120,-0.03879
0.00862,-0.01908,-0.03745
-0.01347,-0.01185,-0.01275
-0.00783,-0.00750,-0.05832
-0.01712,-0.00330,-0.02443
0.02021,-0.03984,-0.03423
-0.01108,-0.01490,-0.01424
0.01287,-0.01331,-0.03673
0.02207,-0.00486,-0.03929
-0.01175,-0.03831,-0.01353
0.01053,-0.03352,-0.02801
0.01425,-0.02531,-0.04446
0.02186,-0.01688,-0.04950
-0.00616,-0.02454,-0.03823
0.01188,-0.01610,-0.03256
0.00182,-0.02765,-0.03640
-0.01472,-0.00341,-0.02596
0.01964,-0.03123,-0.04092
0.00220,-0.01301,-0.03681
-0.00324,-0.02093,-0.01224
0.01108,-0.01009,-0.02863
-0.01892,-0.01566,-0.04755
0.01182,-0.01317,-0.03259
-0.02232,-0.01216,-0.03144
-0.02252,-0.02419,-0.04165
-0.00840,-0.01596,-0.04738
-0.01092,-0.03877,-0.02803
0.00054,-0.03304,-0.02153
-0.00232,-0.03697,-0.05802
-0.00713,0.00795,-0.03096
-0.00755,-0.03286,-0.02324
0.00964,-0.00426,-0.03120
0.00801,-0.03047,-0.02636
-0.00289,-0.03247,-0.00531
-0.01378,-0.02388,-0.02278
0.00735,-0.00446,-0.04016
0.01087,0.00730,-0.03559
-0.01203,0.01142,-0.01730
0.01016,-0.01288,-0.02442
-0.00733,-0.02701,-0.02342
0.00777,-0.00983,-0.02293
-0.00638,-0.02423,-0.02758
-0.02155,-0.01816,-0.03527
0.00988,0.00776,-0.02103
-0.01246,-0.00938,-0.02733
-0.00168,-0.02707,-0.02017
-0.00558,-0.02730,-0.03161
0.00540,-0.01296,-0.03190
0.01468,-0.02775,-0.02728
-0.00956,-0.03045,-0.04298
0.00150,-0.03936,-0.03608
0.01747,-0.02233,-0.03963
-0.00291,-0.02156,-0.03342
-0.00579,-0.03608,-0.03141
-0.00023,-0.00966,-0.02482
0.01127,-0.01334,-0.03921
0.00489,-0.01345,-0.04906
-0.00537,-0.01820,-0.02142
0.00520,0.00150,-0.03897
-0.00883,-0.00380,-0.03331
0.00900,-0.03355,-0.03057
0.01037,-0.01613,-0.03517
0.00644,-0.06253,-0.02164
0.02474,0.00087,-0.04121
0.01220,-0.02732,-0.01534
-0.00605,-0.04780,-0.03121
0.03399,-0.01392,-0.03662
-0.00341,-0.03589,-0.02261
-0.01231,-0.02206,-0.05893
-0.02312,-0.02112,-0.03796
-0.00283,-0.02482,-0.04411
-0.01228,-0.00646,-0.02769
0.01177,-0.01579,-0.02224
-0.02240,-0.00536,-0.00023
0.00363,0.01381,-0.02084
-0.00065,-0.01372,-0.06315
-0.00913,-0.03258,-0.01554
0.02333,-0.01037,-0.02639
-0.02594,-0.04214,-0.05692
-0.01845,-0.02397,-0.03055
0.00321,-0.01025,-0.04127
0.01209,-0.01350,-0.04351
-0.01123,-0.00400,-0.04246
-0.00730,-0.03319,-0.03420
0.00182,-0.02766,-0.03669
-0.00229,-0.00433,-0.04475
-0.00146,-0.00123,-0.03831
-0.01284,-0.03020,-0.03757
0.01614,-0.03976,-0.03531
-0.01382,-0.01916,-0.06149
0.00239,-0.03010,-0.01948
0.00196,-0.01531,-0.01587
-0.00851,-0.02151,-0.03694
-0.00806,-0.00687,-0.03739
0.00027,-0.02444,-0.02862
-0.00581,-0.00960,-0.02834
-0.00519,-0.01853,-0.03212
0.01640,-0.03715,-0.04592
0.00213,0.01996,-0.01285
0.00336,-0.02731,-0.02360
-0.02305,-0.00553,-0.00671
0.00687,-0.02172,-0.02943
-0.01150,0.01988,-0.02846
0.00996,-0.02459,-0.02443
0.01575,-0.02822,-0.04215
0.01123,-0.03952,-0.03211
0.02444,-0.02791,-0.02336
-0.00975,-0.00366,-0.02941
-0.00702,-0.01499,-0.01362
0.01246,-0.02179,-0.02618
0.01395,-0.02469,-0.02364
-0.01252,0.01710,-0.02441
-0.01166,-0.03864,-0.02435
-0.01683,-0.01159,-0.00738
-0.01687,-0.01777,-0.01777
-0.01598,-0.03791,-0.00416
-0.03408,-0.02312,-0.01706
-0.02271,-0.03591,-0.04176
-0.02336,-0.00374,-0.04523
0.00584,-0.03069,-0.03593
0.00272,0.00160,-0.03778
0.01360,-0.01316,-0.03070
0.00150,-0.02671,-0.00525
0.00411,-0.02715,-0.01743
0.00559,-0.01623,-0.04295
0.01668,-0.02838,-0.04653
0.00014,-0.02088,-0.00797
0.00962,-0.01307,-0.03169
-0.00745,-0.03873,-0.02383
0.00083,-0.03306,-0.02229
-0.01938,-0.03586,-0.03710
0.00828,-0.02106,-0.00633
-0.00839,-0.01210,-0.01657
-0.01507,-0.03335,-0.04693
0.00785,-0.01246,-0.01316
0.01314,-0.03984,-0.04072
0.00603,-0.03070,-0.03623
0.00409,-0.03301,-0.01752
-0.00030,-0.02464,-0.03575
-0.00397,-0.02227,-0.05783
-0.01242,-0.01494,-0.01751
0.01342,-0.02781,-0.03062
-0.00322,-0.01266,-0.03049
-0.01004,-0.02416,-0.02942
-0.00547,-0.03611,-0.03226
-0.03160,-0.01496,-0.03651
-0.00758,-0.00104,-0.03828
0.01857,-0.02838,-0.04442
-0.00490,-0.01529,-0.02236
-0.01286,-0.01544,-0.03467
-0.00715,-0.01875,-0.04180
-0.00784,-0.00332,-0.01708
0.02914,-0.02543,-0.03381
-0.01047,-0.01848,-0.03614
0.00357,-0.00377,-0.02097
-0.00498,-0.02440,-0.03262
0.00682,-0.00696,-0.02651
-0.00751,-0.02721,-0.03095
0.00856,-0.03668,-0.03777
-0.00010,-0.02139,-0.02533
0.01645,-0.03946,-0.02536
-0.01970,-0.02368,-0.02307
-0.00109,-0.00093,-0.02839
-0.00107,-0.01036,-0.04922
-0.01522,-0.02912,-0.00493
0.00510,-0.01285,-0.02877
0.00597,-0.01299,-0.03282
-0.03647,-0.01438,-0.02277
-0.00139,-0.00320,-0.00721
0.00063,-0.02414,-0.01876
-0.01111,-0.03539,-0.01450
-0.00767,-0.02655,-0.00986
-0.01080,-0.03605,-0.03564
-0.01692,-0.01795,-0.02490
0.00758,-0.02208,-0.04070
0.00252,-0.02769,-0.03734
0.00944,-0.01945,-0.04889
0.01392,-0.03432,-0.05161
-0.00622,-0.02476,-0.04567
0.00568,-0.02438,-0.02194
-0.00163,0.00215,-0.02448
-0.01389,-0.00668,-0.03736
-0.00318,-0.02112,-0.01969
0.00340,-0.00460,-0.04856
-0.00983,-0.00677,-0.03648
0.00161,-0.00723,-0.04037
-0.00687,-0.04492,-0.03442
0.00305,-0.01305,-0.03770
-0.00282,-0.00616,-0.00953
-0.00514,-0.04196,-0.03202
-0.00700,-0.04134,-0.01337
0.02027,-0.01064,-0.03834
0.00047,-0.00935,-0.01507
-0.00981,-0.02968,-0.01864
0.02099,-0.01665,-0.04221
0.01507,-0.02536,-0.04526
0.00521,-0.01545,-0.01804
-0.00133,-0.02141,-0.02770
0.00553,-0.03934,-0.03192
0.01209,-0.03662,-0.03271
0.00009,-0.03049,-0.03547
0.01632,-0.00469,-0.03928
0.02567,-0.01038,-0.02433
-0.00089,-0.02709,-0.02092
0.00610,-0.00974,-0.02216
-0.00651,-0.02410,-0.02431
0.02222,-0.03952,-0.02178
-0.00049,-0.03894,-0.02455
0.01254,-0.03319,-0.01560
-0.00227,-0.00923,-0.01328
-0.03076,-0.01769,-0.02967
-0.00627,-0.04181,-0.02780
0.00197,-0.01290,-0.03348
-0.00379,-0.00633,-0.01588
0.00083,0.00789,-0.02601
0.02288,-0.03935,-0.01534
0.00419,-0.02505,-0.04531
0.01247,-0.03319,-0.01568
-0.00103,-0.02416,-0.02102
0.00168,-0.01550,-0.02288
0.01268,-0.01060,-0.04402
-0.00712,-0.02492,-0.05198
0.01103,-0.00119,-0.02562
0.01117,-0.02476,-0.02894
-0.00026,-0.02431,-0.02506
0.02287,-0.01025,-0.02275
-0.00490,-0.02472,-0.04299
-0.01001,-0.05032,-0.02194
0.00092,-0.01275,-0.02945
-0.00328,-0.01233,-0.01979
-0.02198,-0.02421,-0.04246
-0.00792,-0.00331,-0.01690
-0.00361,-0.03022,-0.02985
0.01367,-0.02813,-0.04106
-0.02599,-0.01794,-0.03298
0.01579,-0.03053,-0.02148
0.01855,-0.02512,-0.03380
-0.00503,-0.02440,-0.03250
0.01440,0.00764,-0.02103
-0.01121,-0.02629,-0.00409
-0.00297,-0.00681,-0.03062
0.00020,-0.00675,-0.02571
0.00277,-0.02718,-0.02019
-0.00504,-0.02765,-0.04305
-0.00678,-0.02736,-0.03495
-0.00226,-0.03605,-0.02731
-0.01689,0.01375,-0.04288
0.00908,-0.03943,-0.03112
0.01313,-0.01953,-0.04794
-0.01232,-0.01819,-0.02802
-0.02043,-0.01801,-0.02978
-0.00016,-0.01228,-0.01506
-0.00399,-0.00959,-0.02658
-0.00271,-0.05069,-0.02692
0.00295,-0.03076,-0.04128
0.00243,-0.01891,-0.03760
-0.01006,-0.03034,-0.03985
-0.01297,-0.01544,-0.03466
-0.00156,-0.02207,-0.04892
-0.00933,-0.03017,-0.03334
-0.01448,-0.03253,-0.01950
0.01888,0.00950,-0.05203
0.00239,-0.03126,-0.05832
0.01358,0.00128,-0.03804
-0.00014,-0.03407,-0.05665
0.02115,0.01296,-0.03261
0.00187,-0.01323,-0.04425
0.01344,-0.03399,-0.04100
0.02539,-0.01069,-0.03504
0.02827,-0.02560,-0.04021
0.00062,-0.04477,-0.02209
-0.01216,-0.00615,-0.01776
-0.01669,-0.01307,-0.05661
0.02133,-0.03384,-0.02861
0.01515,-0.02192,-0.02823
0.01424,0.00765,-0.02102
0.01013,-0.02461,-0.02496
0.01105,-0.02801,-0.03948
0.01378,-0.00699,-0.02055
-0.01770,-0.02966,-0.02434
0.00184,-0.02410,-0.01612
-0.02171,-0.03282,-0.03569
0.01160,-0.00134,-0.02970
0.01592,-0.05766,-0.04579
-0.02320,0.00243,-0.03515
-0.02455,-0.04441,-0.03374
0.00223,-0.01890,-0.03740
-0.01419,-0.01496,-0.01984
0.00036,-0.02771,-0.03957
-0.01010,-0.03829,-0.01174
0.01930,-0.01323,-0.02756
-0.00771,-0.02135,-0.03092
0.00493,-0.02405,-0.01116
0.00007,-0.02706,-0.01845
0.00218,-0.03889,-0.01969
-0.00652,-0.00979,-0.03535
0.00369,-0.02797,-0.04521
-0.01158,0.02019,-0.01845
-0.00895,-0.02966,-0.01609
-0.02069,-0.05653,-0.04306
-0.00204,-0.02759,-0.03802
0.01323,0.00487,-0.01687
-0.00143,-0.00092,-0.02827
-0.00643,-0.00979,-0.03540
-0.01124,-0.01280,-0.04271
0.02230,-0.02813,-0.03281
-0.00056,-0.02724,-0.02503
-0.01523,-0.02978,-0.02599
0.00464,-0.01252,-0.01812
0.03943,-0.02571,-0.03351
-0.00508,-0.01855,-0.03273
-0.00429,-0.02780,-0.04709
-0.01149,-0.02159,-0.04251
0.00470,0.00747,-0.03586
0.00217,-0.00477,-0.05500
0.00671,-0.00728,-0.03700
-0.00571,-0.03578,-0.02165
0.01000,-0.03697,-0.04576
-0.00097,-0.02514,-0.05277
-0.01255,-0.00876,-0.00710
0.01679,-0.03928,-0.01875
-0.00630,-0.02718,-0.02838
-0.01497,0.00192,-0.04405
-0.00309,-0.00095,-0.03075
0.00226,-0.01597,-0.03753
0.01111,-0.00980,-0.01891
0.01709,-0.01376,-0.04715
-0.00571,-0.03611,-0.03215
-0.02372,-0.00896,-0.02433
0.00845,-0.01846,-0.01711
0.01278,-0.03919,-0.01968
-0.01452,-0.03903,-0.04040
0.00984,-0.01341,-0.04251
0.00008,-0.03617,-0.02893
-0.01109,-0.01313,-0.05337
-0.00709,-0.00379,-0.03163
0.00662,-0.00403,-0.02654
-0.01011,-0.02123,-0.02947
-0.02801,-0.00384,-0.05297
0.00827,-0.03374,-0.03768
-0.00255,-0.01606,-0.04484
0.02202,-0.03723,-0.04302
-0.00286,-0.01541,-0.02372
0.00354,-0.00001,0.00687
-0.01486,-0.00961,-0.03692
0.00223,-0.02717,-0.01985
0.00476,-0.00437,-0.03920
-0.00796,-0.02459,-0.04120
-0.02043,-0.02986,-0.03304
-0.00709,-0.02474,-0.04522
0.00703,-0.00709,-0.03013
0.03181,0.00376,-0.03580
0.00163,-0.01060,-0.05449
-0.02294,-0.00943,-0.03861
0.02009,-0.00751,-0.03155
0.00021,0.00465,-0.03628
0.01244,-0.01886,-0.02645
0.00780,-0.02545,-0.05478
-0.01160,-0.03572,-0.02469
0.00468,-0.03932,-0.03166
0.03874,-0.01415,-0.04003
0.13447,0.05102,-0.12336
-0.19095,-0.04017,0.03592
-0.02038,-0.03603,-0.04854
-0.00142,0.01609,-0.05085
0.00292,-0.02240,-0.05959
0.01637,-0.01834,-0.00857
-0.00148,-0.02771,-0.04868
0.01496,-0.02512,-0.04144
0.02343,-0.06339,-0.03602
0.00474,-0.01514,-0.01703
0.02251,-0.00723,-0.02449
0.01650,-0.03435,-0.05485
0.02614,-0.02207,-0.02604
0.01105,-0.02189,-0.04041
-0.00611,0.00294,-0.02226
0.02276,-0.03700,-0.03999
0.01294,-0.01389,-0.06473
0.01364,-0.02506,-0.04744
0.02162,-0.12934,-0.08371
0.05383,0.07911,-0.03676
0.03236,0.00213,0.00189
-0.01695,-0.04652,-0.02856
0.01267,0.02004,-0.01639
0.00294,-0.09865,-0.06863
0.03484,-0.03484,-0.04752
0.01043,-0.01017,-0.04590
0.00119,-0.01480,-0.02259
-0.00878,-0.01139,-0.02319
0.08600,-0.02297,-0.05872
0.03929,0.09879,0.00364
-0.03386,-0.05567,-0.06354
0.00685,-0.01458,-0.00955
0.04050,-0.05577,-0.05103
0.01231,-0.02739,-0.03332
0.05184,-0.01499,-0.04407
0.01294,-0.03560,-0.01597
0.04443,-0.04062,-0.03202
0.02432,-0.02793,-0.03312
0.00841,-0.01246,-0.03340
0.03666,-0.03722,-0.03000
0.03518,0.00350,-0.04284
0.06890,-0.01617,-0.05329
0.01293,-0.04106,-0.09059
0.03057,-0.00920,-0.07741
0.01826,-0.02897,-0.07305
0.02862,-0.00515,-0.04843
0.02855,0.06777,-0.14548
0.05301,-0.04393,-0.11515
0.02613,-0.05523,-0.05713
0.03262,0.02802,-0.01703
0.01680,-0.03775,0.01017
0.02683,0.03346,-0.03758
0.02816,-0.04469,-0.00356
-0.00049,0.00889,0.06171
0.01716,-0.00562,0.09231
0.01064,-0.00820,0.09295
0.03224,-0.01291,-0.01232
0.03321,-0.00394,-0.00579
-0.01024,0.07774,0.08901
0.07096,-0.04240,-0.04538
0.08510,-0.02882,-0.05723
0.09361,-0.03278,-0.07605
0.10508,-0.00931,-0.05922
0.02420,-0.02511,-0.03738
0.03042,-0.04848,-0.02408
0.03455,-0.01538,0.00757
0.03087,-0.00971,-0.00395
0.05195,-0.00485,-0.00309
0.01620,0.07769,0.04692
0.06833,0.02863,-0.03188
0.06477,0.00826,-0.03131
0.00202,-0.04736,-0.03918
-0.05159,-0.13034,-0.06743
0.05810,-0.03240,-0.02791
0.00447,-0.09169,-0.04653
0.06332,0.00257,-0.02744
0.02342,-0.10799,-0.06849
0.06467,-0.02328,-0.00427
0.00796,-0.11600,-0.06931
0.05345,-0.06784,-0.04545
0.05066,-0.07599,-0.02663
0.13492,-0.00138,-0.03724
0.16684,-0.02048,-0.03297
0.04752,-0.09004,-0.00966
0.07079,-0.31776,-0.13788
-0.11642,-0.20298,-0.07769
0.08731,0.03905,-0.03833
0.10111,-0.13005,0.02312
0.10207,0.54829,0.03522
-0.07374,-0.13791,0.02961
-0.10591,-0.13816,-0.05198
-0.08945,-0.21545,-0.05528
-0.03467,-0.12754,-0.04799
0.05590,0.09939,-0.04236
0.13795,0.05297,0.02667
-0.03102,0.09356,0.00452
-0.04447,-0.15881,-0.02180
-0.00578,-0.11191,-0.05833
0.04145,-0.08532,-0.06721
0.09269,0.17096,0.07329
0.04105,0.05757,0.01188
-0.12971,0.02416,0.07222
-0.01762,-0.08854,-0.08583
0.06258,-0.11612,-0.08037
0.04886,0.06612,0.01758
-0.00714,0.06548,-0.00668
0.04760,-0.00672,-0.07793
0.01432,-0.06287,-0.04751
-0.00128,-0.01709,-0.01075
0.02424,-0.02436,-0.01311
0.05644,-0.00272,-0.01913
0.02838,-0.00804,-0.05340
0.01575,-0.02166,-0.03889
0.03911,-0.03694,-0.01579
0.00539,0.00287,-0.01918
0.02482,-0.03037,-0.01753
0.02416,-0.05115,-0.02752
0.05613,-0.04152,-0.04381
0.03708,-0.04524,-0.00144
0.03385,-0.02505,-0.02013
0.02204,-0.01865,-0.02326
0.02117,-0.01557,-0.01937
0.02282,-0.01881,-0.02743
0.01062,-0.00302,-0.00974
0.02563,-0.01267,-0.01221
0.01948,-0.03034,-0.02579
0.03371,-0.07524,-0.03127
0.01547,-0.02724,-0.02692
-0.00062,-0.02115,-0.04808
0.02607,-0.01946,-0.04395
0.01460,-0.02739,-0.03359
0.01926,-0.03603,-0.01938
0.01091,-0.03615,-0.03842
0.03676,-0.04046,-0.04069
0.00843,-0.03306,-0.03707
0.01667,-0.03911,-0.02848
0.00269,-0.03288,-0.04060
0.01365,-0.02708,-0.02333
0.05104,-0.02668,-0.04647
0.02805,-0.01622,-0.02891
0.02651,-0.01701,-0.05901
0.03699,-0.01380,-0.03118
-0.00878,0.00257,-0.05118
0.01545,-0.03016,-0.02494
0.02369,-0.03620,-0.01637
0.02284,-0.01784,0.00819
0.02589,-0.02238,-0.04201
0.01746,-0.02416,-0.01623
0.01394,-0.03373,-0.04863
0.04124,-0.01656,-0.01738
0.05964,-0.01252,-0.04956
0.02897,-0.02808,-0.03073
-0.00823,-0.01729,-0.02499
0.02389,-0.02481,-0.02773
0.00866,-0.00367,-0.03219
0.02851,-0.01279,-0.01015
0.00733,-0.05014,-0.01780
0.01544,-0.02691,-0.01255
-0.00365,-0.03031,-0.05942
0.01261,-0.00984,-0.03514
0.01021,0.00771,-0.04064
0.02114,-0.02853,-0.05786
0.01397,-0.00398,-0.03281
0.01716,-0.06005,-0.03828
-0.00656,-0.01763,-0.03057
0.04310,-0.02867,-0.02704
0.03573,-0.01615,-0.01221
-0.00836,-0.02625,-0.02626
0.01665,-0.00137,-0.03845
0.03237,-0.00786,-0.03452
0.00426,-0.00007,-0.01368
0.00635,-0.02754,-0.04608
0.01446,-0.03646,-0.03739
0.01248,-0.03614,-0.02936
0.01932,-0.02686,-0.00268
0.01650,-0.04784,-0.02166
0.00962,-0.02120,-0.02439
0.03758,-0.05496,-0.03146
0.05440,-0.02650,-0.03521
0.01950,-0.01566,-0.02046
0.00429,-0.05941,-0.03504
0.03055,-0.02883,-0.05154
0.00230,-0.06201,-0.02704
0.00349,-0.03034,-0.04517
-0.00046,-0.01489,-0.02549
0.04437,-0.04326,-0.02241
0.05357,-0.03662,-0.08010
-0.03568,0.03725,-0.00380
0.01010,-0.08296,-0.02862
0.05700,-0.02700,-0.04775
-0.00902,0.01258,-0.00333
0.00154,-0.00645,-0.03396
0.03364,-0.03451,-0.04015
0.11018,-0.01050,-0.10215
0.00976,0.00513,-0.02582
0.05728,-0.06547,-0.05878
-0.03961,-0.05571,0.02239
0.01633,-0.01583,-0.03012
0.00854,-0.04752,-0.02175
0.01734,-0.01320,-0.03787
0.00991,-0.00522,0.02186
0.02418,-0.02601,-0.06319
-0.06700,-0.02226,0.02842
0.03813,0.01826,-0.03423
0.02300,-0.03445,-0.05235
0.00944,-0.02231,-0.05788
0.00128,-0.01535,-0.03218
0.00313,-0.00688,-0.04044
0.04230,-0.03167,-0.03052
-0.07108,-0.05698,0.04423
-0.00045,0.01113,-0.03165
-0.01213,-0.03249,-0.03457
-0.00902,-0.02872,-0.00206
0.03864,-0.00895,-0.06004
0.02355,-0.01392,-0.05065
-0.04805,-0.08032,-0.01563
0.02256,-0.03083,-0.02930
-0.00593,-0.00597,-0.02195
-0.03118,0.00566,0.03532
0.02263,0.00099,-0.04385
0.01520,0.02534,-0.02555
0.02640,-0.00795,-0.04299
0.06881,-0.02238,-0.07334
0.00505,-0.01501,-0.01593
-0.05070,-0.00380,-0.01212
0.03681,-0.04021,-0.02935
-0.00569,0.01429,-0.03079
0.00826,0.00202,-0.02935
0.01247,-0.03851,-0.00765
-0.01432,-0.01106,-0.00838
-0.01791,0.05616,-0.02055
0.00801,-0.00691,-0.03311
0.02454,0.01543,-0.04719
0.00532,-0.00383,-0.03128
0.00502,-0.02412,-0.02392
-0.02758,-0.04337,-0.02386
0.00639,-0.05714,-0.04541
0.00170,-0.07989,-0.02857
0.01541,-0.00608,0.00342
-0.00237,-0.00336,-0.02397
0.02744,-0.04788,-0.00483
-0.01143,0.02957,-0.01243
-0.00078,0.03797,-0.01257
0.00603,-0.00101,-0.03058
0.00471,-0.03320,-0.02956
-0.00708,-0.03852,-0.02566
-0.02669,-0.04689,-0.03414
0.00479,-0.04765,-0.02312
0.00261,-0.04167,-0.02217
-0.01216,-0.05197,0.00420
-0.02375,-0.04322,-0.00989
-0.00755,-0.04075,-0.00686
-0.04378,-0.02765,-0.00546
-0.01812,-0.00278,-0.02252
-0.04288,0.01409,0.01306
-0.01940,-0.00413,0.01876
-0.04005,0.01940,-0.00033
-0.01007,0.02681,-0.00941
-0.02927,0.03679,0.00203
-0.05455,0.05584,0.01372
-0.12952,0.02835,0.06089
-0.10755,-0.00754,0.05809
-0.03419,0.04569,0.06288
-0.09276,0.02965,0.04091
-0.13606,-0.08036,0.03192
-0.11244,-0.12341,0.00743
-0.08001,-0.06114,0.05126
-0.00155,0.06264,0.06802
-0.03283,0.01067,0.05405
-0.02167,-0.00126,-0.00782
-0.01877,0.08083,-0.00813
-0.00148,0.09603,-0.04370
-0.02832,0.06886,-0.02281
-0.00717,0.09499,-0.00876
-0.02558,0.11300,-0.01786
-0.01343,0.09190,-0.01747
-0.03813,0.10640,0.01965
-0.01319,0.11383,0.01551
-0.04215,0.06046,0.04303
-0.05790,0.03986,0.02719
-0.04724,0.03016,0.01881
-0.08058,0.01798,0.04528
-0.07266,0.00870,0.04210
-0.07207,0.03184,0.03638
-0.06296,0.01303,0.01499
-0.07276,-0.00961,0.02272
-0.03047,-0.00941,0.00072
-0.04211,-0.00282,0.00232
-0.04887,0.01801,0.00096
-0.00980,0.01833,-0.01930
-0.04971,0.00381,0.01063
-0.03979,-0.00870,-0.00171
-0.06641,0.01673,0.01326
-0.06180,0.00234,0.02509
-0.06361,-0.01816,0.01660
-0.05928,-0.03011,0.01115
-0.08135,0.00025,-0.00834
-0.06916,0.00332,0.01256
-0.07670,0.01235,-0.00233
-0.04757,0.01501,0.04630
-0.07146,0.02712,0.00055
-0.06761,0.00137,0.02310
-0.06794,-0.01551,0.03806
-0.06941,-0.03333,0.01895
-0.04876,0.00074,0.02137
-0.04684,-0.07857,0.02381
-0.05112,-0.05129,0.03175
-0.03072,-0.09460,0.00877
-0.04256,-0.07912,-0.00285
-0.00921,-0.09633,0.00076
0.00329,-0.06579,-0.03005
0.00118,-0.05609,-0.01025
0.03649,-0.05017,-0.00845
0.00658,-0.07135,-0.02023
0.04065,-0.06855,-0.02411
0.01693,-0.07205,-0.01846
-0.01937,-0.08092,-0.03626
0.00309,-0.06745,-0.01149
-0.01069,-0.07032,-0.05472
0.01042,-0.10434,-0.04486
0.04074,-0.03036,-0.03518
0.04655,-0.04876,-0.04048
0.06469,-0.03952,-0.06366
0.08247,0.00760,-0.09906
0.08386,-0.04262,-0.09862
0.11118,-0.03152,-0.12754
0.11483,-0.01658,-0.11240
0.10311,-0.00043,-0.10440
0.10979,-0.03898,-0.09603
0.11210,-0.02808,-0.11842
0.08440,-0.06433,-0.13596
0.09262,-0.04419,-0.13011
0.07249,-0.03297,-0.11269
0.09227,-0.02266,-0.10450
0.07457,-0.01273,-0.12055
0.07372,-0.02682,-0.10272
0.07745,-0.01320,-0.12965
0.04747,0.02299,-0.08722
0.09395,0.00304,-0.12619
0.11942,-0.00424,-0.10109
0.10414,-0.01511,-0.11922
0.11971,0.00964,-0.13226
0.09993,-0.00577,-0.11888
0.10141,-0.01770,-0.12687
0.10789,0.00288,-0.10873
0.11626,-0.02128,-0.11485
0.08579,-0.04239,-0.12625
0.09478,-0.01054,-0.12390
0.09344,-0.05108,-0.10639
0.08507,-0.03268,-0.10696
0.10626,-0.01060,-0.10652
0.07866,-0.01132,-0.10163
0.08121,-0.02316,-0.10366
0.07722,-0.01681,-0.09691
0.07973,-0.03118,-0.06331
0.04518,-0.03456,-0.05346
0.03972,-0.03754,-0.09950
0.05962,-0.02963,-0.05922
0.06323,-0.05944,-0.09108
0.05854,-0.07380,-0.09154
0.05558,-0.07649,-0.08565
0.06991,-0.08338,-0.09563
0.08701,-0.06397,-0.10311
0.07153,-0.08923,-0.08225
0.07393,-0.10125,-0.09851
0.07503,-0.08378,-0.10918
0.05736,-0.07659,-0.08929
0.06756,-0.07137,-0.08543
0.04431,-0.07863,-0.08727
0.05592,-0.07356,-0.09159
0.07841,-0.11021,-0.07656
0.07031,-0.08908,-0.07012
0.05975,-0.07088,-0.08718
0.05582,-0.11169,-0.07901
0.04513,-0.07868,-0.07766
0.06980,-0.04206,-0.06901
0.04217,-0.06078,-0.06510
0.05904,-0.05300,-0.05926
0.06281,-0.01794,-0.05402
0.05921,-0.03527,-0.04910
0.04101,-0.00777,-0.05363
0.04933,-0.03763,-0.07155
0.03876,-0.05461,-0.07214
0.07614,-0.03310,-0.08364
0.08456,-0.06282,-0.09801
0.10644,-0.03737,-0.08081
0.10850,-0.07555,-0.09452
0.08960,-0.07751,-0.11014
0.10239,-0.03102,-0.09682
0.13070,-0.04379,-0.11810
0.11141,-0.05739,-0.09510
0.11868,-0.00763,-0.08895
0.09812,-0.01540,-0.09363
0.10917,-0.01565,-0.08462
0.09056,-0.02952,-0.07648
0.09009,-0.02638,-0.08423
0.07155,0.00643,-0.06374
0.06625,-0.02258,-0.07239
0.03972,0.00755,-0.07852
0.03900,0.00729,-0.02119
0.02383,-0.02147,-0.04406
0.02172,-0.01574,-0.01411
0.03107,-0.01854,-0.05364
0.02265,-0.03862,-0.07725
0.03052,-0.04450,-0.08337
0.05542,-0.02731,-0.07606
0.05404,-0.03287,-0.09014
0.05525,-0.03552,-0.10593
0.05327,-0.03836,-0.10138
0.04992,-0.04979,-0.11402
0.05031,-0.04375,-0.12183
0.05444,-0.02056,-0.09949
0.07189,-0.01137,-0.13377
0.05579,0.00018,-0.10420
0.05100,0.00629,-0.11500
0.02443,0.00048,-0.09978
0.01709,-0.00875,-0.06235
-0.00048,0.00314,-0.06401
-0.00733,-0.00028,-0.03023
-0.01245,-0.02341,-0.04478
-0.01561,-0.05019,-0.02120
-0.03023,-0.01436,-0.05310
-0.02434,0.00843,-0.02076
-0.07374,-0.00998,0.00324
-0.08971,-0.01311,0.00389
-0.12052,-0.00302,0.05461
-0.13893,0.02294,0.05780
-0.14046,-0.00961,0.06567
-0.15174,-0.00693,0.07046
-0.14894,-0.04168,0.05756
-0.15163,-0.05613,0.05250
-0.14318,-0.00364,0.06631
-0.12729,-0.04924,0.02998
-0.13779,-0.07315,0.03741
-0.11797,-0.08454,0.02776
-0.12077,-0.07586,0.02685
-0.13453,-0.07368,0.04016
-0.12851,-0.05864,0.03644
-0.12550,-0.04458,0.05935
-0.17117,-0.03561,0.05115
-0.18118,-0.05564,0.04637
-0.19665,-0.04681,0.06006
-0.18862,0.01236,0.03815
-0.20255,0.01438,0.06079
-0.24055,0.00865,0.04646
-0.22586,-0.00624,0.05687
-0.21898,0.01895,0.09087
-0.20990,0.01906,0.08440
-0.24856,0.05642,0.09279
-0.21165,0.02451,0.08521
-0.19582,0.05695,0.07576
-0.19295,0.05668,0.07752
-0.18432,0.02808,0.05409
-0.15507,-0.02959,0.05140
-0.16605,-0.00428,0.00743
-0.14672,-0.03111,0.03648
-0.16256,-0.01387,0.06148
-0.17526,0.00163,0.03224
-0.16377,-0.02507,0.05576
-0.18771,0.01550,0.06562
-0.16751,-0.02544,0.07942
-0.17249,-0.03319,0.06515
-0.17119,-0.01810,0.07185
-0.18333,-0.07305,0.06041
-0.17448,-0.03422,0.05630
-0.19976,-0.03842,0.04106
-0.17681,-0.04444,0.06451
-0.17575,-0.02296,0.05758
-0.19243,0.00072,0.07851
-0.21439,-0.01267,0.07725
-0.20490,-0.00938,0.07107
-0.23408,0.00581,0.10597
-0.23407,0.01773,0.09903
-0.22876,0.02063,0.09551
-0.22714,0.05276,0.10219
-0.23289,0.02685,0.08756
-0.25931,0.02496,0.08313
-0.24969,0.01297,0.08750
-0.24247,0.02161,0.08726
-0.22813,0.01517,0.09935
-0.23320,0.03315,0.08994
-0.22832,-0.02971,0.09906
-0.22207,-0.01459,0.10344
-0.22847,-0.03584,0.12057
-0.22445,-0.08456,0.07942
-0.23952,-0.06102,0.09032
-0.24384,-0.05258,0.09748
-0.24845,-0.07626,0.09654
-0.20770,-0.07161,0.06679
-0.18380,-0.06019,0.07771
-0.17159,-0.08751,0.06621
-0.16704,-0.06597,0.05494
-0.13943,-0.08015,0.03833
-0.15139,-0.07855,0.05564
-0.13323,-0.05308,0.00916
-0.11395,-0.04771,0.04923
-0.11689,-0.06088,0.07383
-0.12856,-0.02878,0.08505
-0.13975,0.00808,0.06572
-0.13672,-0.01168,0.06583
-0.17849,0.00548,0.05667
-0.14448,0.02538,0.05445
-0.13629,0.02114,0.02540
-0.09613,0.01973,0.03211
-0.08380,0.03662,0.04579
-0.05668,0.02388,0.01545
-0.07064,0.06018,-0.02596
-0.02807,0.04013,-0.02848
-0.05052,0.07040,-0.01411
-0.05812,0.07604,-0.06070
-0.05422,0.04995,-0.04030
-0.06961,0.07222,-0.06417
-0.09011,0.06753,-0.03808
-0.05284,0.04342,-0.00288
-0.05729,0.07669,-0.01155
-0.04499,-0.00354,0.00622
-0.03945,-0.00349,0.00816
-0.05973,-0.03670,-0.02753
-0.05429,-0.02614,-0.05603
-0.02339,-0.10185,-0.05376
-0.01760,-0.07582,-0.05516
0.01470,-0.07762,-0.05023
-0.00961,-0.04859,-0.02984
0.01377,-0.05257,-0.04007
0.00796,-0.06951,-0.04743
0.04633,-0.04473,-0.02035
0.03081,-0.04923,-0.05496
0.03630,-0.06514,-0.06220
0.03530,-0.06579,-0.08530
0.07106,-0.09111,-0.10835
0.11465,-0.04740,-0.09063
0.10248,-0.01177,-0.08120
0.09468,-0.02103,-0.06004
0.09724,0.00440,-0.08071
0.06207,0.02936,-0.07897
0.06068,0.03432,-0.05404
0.09652,0.03369,-0.05180
0.10691,0.04431,-0.04367
0.10651,0.00686,-0.07274
0.07718,-0.02361,-0.08034
0.10335,-0.01561,-0.10902
0.14005,-0.00239,-0.16471
0.10765,0.00793,-0.10327
0.15319,0.03285,-0.13287
0.16419,0.04074,-0.11494
0.14147,0.02529,-0.10172
0.15575,0.03222,-0.08876
0.13591,0.00579,-0.09803
0.14332,0.01162,-0.07689
0.15271,-0.02062,-0.08054
0.13054,-0.07310,-0.08284
0.11689,-0.10575,-0.07521
0.11903,-0.15559,-0.10317
0.13666,-0.15819,-0.08585
0.17296,-0.16574,-0.08776
0.16736,-0.17565,-0.12622
0.18966,-0.19426,-0.16254
0.19567,-0.19864,-0.16360
0.21876,-0.16817,-0.17342
0.26863,-0.14650,-0.18757
0.27346,-0.12035,-0.18705
0.23660,-0.14682,-0.20176
0.25303,-0.11966,-0.19129
0.24277,-0.07674,-0.17417
0.25913,-0.03264,-0.18414
0.25207,-0.03109,-0.18177
0.24759,-0.03986,-0.15498
0.24521,-0.02930,-0.18671
0.23327,0.03110,-0.20536
0.23965,0.02139,-0.19461
0.28005,0.08472,-0.20576
0.25882,0.10021,-0.20676
0.25608,0.10788,-0.23074
0.25068,0.07555,-0.19153
0.26955,0.09879,-0.19332
0.26683,0.12151,-0.17328
0.22281,0.07564,-0.17473
0.19858,0.06224,-0.17323
0.23715,0.04058,-0.17162
0.22714,0.00407,-0.16653
0.20544,0.02953,-0.15731
0.21805,-0.00438,-0.18820
0.21744,-0.01793,-0.17392
0.20197,0.00380,-0.15820
0.20147,-0.01497,-0.17939
0.21574,-0.03634,-0.16542
0.19943,-0.03234,-0.15779
0.17884,-0.06102,-0.15956
0.19107,-0.09747,-0.14441
0.18970,-0.08486,-0.14246
0.17908,-0.07102,-0.15256
0.18899,-0.09830,-0.13923
0.15059,-0.07467,-0.12615
0.14330,-0.06722,-0.12165
0.15604,-0.07138,-0.12800
0.13435,-0.08913,-0.11783
0.14253,-0.06280,-0.10177
0.14523,-0.07789,-0.10834
0.12551,-0.05807,-0.12701
0.13315,-0.04656,-0.11519
0.13803,-0.04658,-0.10574
0.12760,-0.01000,-0.10879
0.09958,0.01009,-0.12467
0.11767,0.04103,-0.10746
0.13416,0.04827,-0.11492
0.09117,0.04372,-0.09274
0.10444,0.03641,-0.11265
0.08831,0.02632,-0.10172
0.13567,0.01382,-0.05972
0.09778,0.00233,-0.09134
0.10918,0.01607,-0.10495
0.09934,-0.00349,-0.12435
0.10716,-0.02136,-0.12369
0.14748,0.01100,-0.12786
0.16738,-0.00194,-0.14532
0.17945,-0.02245,-0.14120
0.15793,-0.01423,-0.13736
0.12966,-0.03839,-0.10543
0.10516,-0.05703,-0.10062
0.06855,-0.05172,-0.10037
0.06882,-0.06953,-0.07592
0.03319,-0.02092,-0.05653
0.04095,-0.05306,-0.07829
0.03850,-0.04668,-0.09117
0.07326,-0.03327,-0.08684
0.06533,-0.01849,-0.06715
0.07130,-0.00328,-0.08922
0.04774,-0.02304,-0.08151
0.06502,-0.01676,-0.10824
0.06219,-0.00193,-0.10262
0.04700,-0.01859,-0.11464
0.06077,-0.00129,-0.10589
0.03650,-0.00925,-0.11101
0.04363,0.00260,-0.11214
0.02476,-0.01491,-0.09980
0.01373,-0.01400,-0.11708
0.02998,-0.05266,-0.10144
-0.00697,-0.04671,-0.08963
-0.00990,-0.03522,-0.08007
-0.03922,-0.00091,-0.05118
-0.04333,-0.01269,-0.04897
-0.08454,-0.02765,-0.03887
-0.09686,-0.00246,-0.01137
-0.11914,-0.00551,-0.01019
-0.14070,-0.01193,0.00127
-0.15714,-0.03096,0.03365
-0.14092,-0.05509,0.05040
-0.14324,-0.06772,0.00590
-0.14862,-0.10258,-0.00203
-0.15975,-0.10163,-0.02211
-0.13636,-0.10605,0.00827
-0.13408,-0.08128,0.04013
-0.14556,-0.05777,0.04589
-0.14708,-0.07521,0.04297
-0.15465,-0.09438,0.01578
-0.14707,-0.09274,0.03923
-0.15018,-0.08584,0.07338
-0.14465,-0.10998,0.08261
-0.15690,-0.12687,0.06526
-0.20599,-0.14822,0.07149
-0.19918,-0.11346,0.07551
-0.20142,-0.11988,0.07934
-0.19172,-0.03975,0.07965
-0.21507,-0.03667,0.09354
-0.22464,-0.02477,0.11276
-0.26308,-0.01632,0.11909
-0.26437,0.00580,0.13729
-0.27109,0.02562,0.14172
-0.27806,0.01411,0.12760
-0.25774,-0.02111,0.12991
-0.29556,-0.02106,0.12529
-0.26456,-0.01874,0.13680
-0.25627,-0.03813,0.15688
-0.25713,-0.05550,0.13474
-0.28677,-0.01752,0.14374
-0.29654,-0.04219,0.14067
-0.29817,-0.02767,0.14841
-0.28621,-0.00395,0.13475
-0.29369,0.00733,0.14574
-0.28906,0.02772,0.14312
-0.29478,0.00714,0.14480
-0.26893,0.01559,0.14278
-0.28577,0.01391,0.11461
-0.27558,0.03346,0.13281
-0.28068,0.01324,0.12432
-0.28488,-0.00711,0.12221
-0.28411,0.01730,0.09552
-0.27202,-0.01108,0.07342
-0.27185,0.03793,0.09245
-0.23532,0.00478,0.10666
-0.22288,-0.00082,0.10241
-0.23974,0.02028,0.09631
-0.24330,0.00106,0.07040
-0.23258,0.01622,0.05812
-0.22964,0.01319,0.06669
-0.21910,-0.01246,0.06992
-0.20123,-0.01430,0.08351
-0.21134,-0.00435,0.07326
-0.19361,-0.01199,0.07645
-0.17287,-0.02216,0.04045
-0.17582,-0.01795,0.05658
-0.14760,-0.02680,0.04683
-0.15904,-0.01899,0.04429
-0.11102,-0.04110,0.00187
-0.09142,-0.03896,0.02499
-0.09006,-0.05008,0.03078
-0.11089,-0.03884,0.03711
-0.11246,-0.04374,0.03808
-0.08820,-0.04507,0.03087
-0.11242,-0.04213,0.00472
-0.08389,-0.05300,0.00128
-0.08503,-0.01405,-0.00261
-0.07458,0.00023,0.00583
-0.07913,0.00980,-0.00779
-0.07342,-0.00803,-0.01846
-0.07917,-0.02151,-0.00849
-0.04900,-0.02751,-0.02574
-0.04620,-0.05119,-0.04491
-0.04870,-0.08024,-0.04460
-0.03698,-0.08141,-0.03746
-0.05405,-0.07317,-0.02310
-0.04498,-0.09473,-0.01563
-0.04237,-0.07436,-0.02237
-0.03471,-0.06332,-0.01905
-0.02052,-0.04448,-0.04966
-0.01651,-0.05967,-0.05262
0.00934,-0.06923,-0.08866
0.02159,-0.04683,-0.07701
0.00377,-0.04125,-0.06561
0.00291,-0.05241,-0.03805
0.01043,-0.06291,-0.08702
-0.00441,-0.10764,-0.04993
-0.00581,-0.07479,-0.04322
-0.02395,-0.03950,-0.03311
-0.01311,-0.06418,-0.01001
-0.02446,-0.06598,-0.04056
-0.02308,-0.10749,-0.04040
0.01610,-0.08039,-0.05158
0.02382,-0.07290,-0.07614
0.04267,-0.06686,-0.09393
0.02351,-0.05522,-0.09194
0.04723,-0.05275,-0.10265
0.04571,-0.06996,-0.08602
0.04291,-0.08123,-0.07861
0.06709,-0.06732,-0.09618
0.04363,-0.04860,-0.07435
0.05726,-0.06670,-0.12889
0.04628,-0.05091,-0.15254
0.10112,-0.03012,-0.18139
0.12794,0.02563,-0.15470
0.13786,0.08296,-0.16243
0.11279,0.10372,-0.17842
0.12473,0.09068,-0.15356
0.14960,0.10842,-0.12774
0.13040,0.13734,-0.14290
0.10118,0.09807,-0.12098
0.09656,0.05685,-0.13115
0.10791,0.12748,-0.17569
0.12305,0.10997,-0.18259
0.14099,0.10553,-0.14908
0.15368,0.12346,-0.16939
0.14359,0.08667,-0.16481
0.12292,0.09088,-0.14415
0.12042,0.07339,-0.14911
0.09706,0.07481,-0.13670
0.10394,0.06654,-0.09500
0.07762,0.02321,-0.10021
0.04997,0.00506,-0.06163
0.03402,-0.01904,-0.04807
0.05360,-0.02199,-0.03441
0.02272,-0.08884,-0.05274
0.06120,-0.10381,-0.06892
0.07602,-0.16540,-0.07788
0.12897,-0.17333,-0.07917
0.12773,-0.15595,-0.11796
0.14989,-0.19209,-0.13413
0.14277,-0.20895,-0.14147
0.15272,-0.18731,-0.17058
0.18732,-0.14499,-0.15512
0.20409,-0.08768,-0.17392
0.18889,-0.06355,-0.13094
0.16510,-0.01899,-0.16737
0.16963,0.01870,-0.15897
0.13829,0.01693,-0.13796
0.14465,0.06312,-0.14057
0.14721,0.03921,-0.12781
0.15533,0.07350,-0.12512
0.11149,0.06733,-0.12334
0.11353,0.09051,-0.12756
0.06929,0.07901,-0.10809
0.07896,0.09650,-0.06501
0.06870,0.06259,-0.05710
0.07283,0.06208,-0.05601
0.06060,0.03412,-0.05647
0.06865,0.01843,-0.04804
0.06932,-0.02668,-0.07503
0.07926,-0.04275,-0.07848
0.09986,-0.06911,-0.10277
0.10039,-0.08994,-0.11769
0.09751,-0.09851,-0.12985
0.10311,-0.11096,-0.13393
0.09803,-0.08636,-0.10156
0.09931,-0.04489,-0.08294
0.06894,-0.05330,-0.08919
0.07267,-0.03000,-0.06995
0.04376,-0.02701,-0.06623
0.03817,-0.02362,-0.07018
0.03480,-0.00571,-0.06772
0.01852,-0.01308,-0.06547
0.01344,0.01976,-0.05033
-0.01069,0.02790,-0.04537
-0.00468,0.00363,-0.01629
0.00416,0.00560,-0.02536
-0.02726,-0.01239,-0.02405
-0.02058,-0.02493,-0.01856
-0.01482,-0.03436,-0.02617
-0.02035,-0.03689,-0.04716
-0.03822,-0.00636,-0.02043
-0.00499,-0.00024,-0.03074
-0.01010,-0.00287,-0.03477
0.00059,-0.00973,-0.02465
-0.03737,-0.02161,-0.03605
-0.01927,-0.01130,-0.03303
-0.01457,-0.03222,-0.03715
0.00414,-0.01272,-0.06171
-0.00467,-0.02416,-0.03931
-0.03509,-0.01337,-0.03666
-0.03581,-0.01658,-0.01890
-0.04347,-0.01633,-0.00692
-0.03752,-0.04352,0.01225
-0.05678,-0.05645,-0.02108
-0.08031,-0.05225,-0.01278
-0.07935,-0.04953,-0.00972
-0.06326,-0.07689,-0.01432
-0.05856,-0.07440,-0.00656
-0.05090,-0.11618,0.00358
-0.03553,-0.11638,-0.03757
-0.04898,-0.09226,-0.02783
-0.03002,-0.09311,-0.04733
-0.04353,-0.07177,-0.04872
-0.01672,-0.03536,-0.04740
-0.01295,-0.04166,-0.04078
-0.03674,-0.02890,-0.01903
-0.04613,0.00705,-0.03649
-0.03999,-0.00798,-0.04202
-0.06179,0.03393,-0.00929
-0.08037,0.05307,-0.04575
-0.06160,0.06339,-0.02293
-0.05387,0.07740,-0.00657
-0.05664,0.06559,0.01191
-0.03105,0.06153,-0.01835
-0.04837,0.06849,-0.02409
-0.04200,0.04486,-0.03925
-0.04793,0.02136,-0.00825
-0.06065,0.00762,-0.02101
-0.06776,-0.01551,-0.01351
-0.08830,-0.06698,-0.01976
-0.03464,-0.01719,-0.02644
-0.05470,-0.04574,-0.00069
-0.05153,-0.04246,-0.03343
-0.04951,-0.05750,-0.01764
-0.03309,-0.07002,-0.02840
-0.05843,-0.04481,-0.04197
-0.04606,-0.07802,-0.03054
-0.04744,-0.06840,-0.07079
-0.06130,-0.06750,-0.07574
-0.03929,-0.06944,-0.04117
-0.07692,-0.03200,-0.04300
-0.06291,-0.08013,-0.02342
-0.04658,-0.04283,-0.02865
-0.08048,-0.03191,-0.03450
-0.06149,-0.05949,-0.03109
-0.05385,-0.04817,-0.03229
-0.04850,-0.02197,-0.03826
-0.03648,-0.03431,-0.04710
-0.04676,0.00446,-0.04587
-0.06458,0.02557,-0.00599
-0.05602,-0.00686,-0.03445
-0.08052,0.00618,-0.01487
-0.05900,0.00780,-0.01471
-0.09024,-0.01653,-0.02377
-0.03913,-0.01363,-0.04229
-0.05279,-0.02170,-0.03030
-0.04990,0.00145,-0.01677
-0.04373,-0.01601,-0.05969
-0.03904,-0.02821,-0.04571
-0.05017,-0.06823,-0.07537
-0.04582,-0.04814,-0.05951
-0.03791,-0.07231,-0.04490
-0.05404,-0.04773,-0.05063
-0.03502,-0.06940,-0.05712
-0.04389,-0.07217,-0.02733
-0.02716,-0.06727,-0.03446
-0.04485,-0.07451,-0.07251
-0.03859,-0.08686,-0.05664
-0.05418,-0.04746,-0.07975
-0.06870,-0.03203,-0.06653
-0.05024,-0.08040,-0.05003
-0.04233,-0.06027,-0.06154
-0.06259,-0.06183,-0.07706
-0.02675,-0.03483,-0.06759
-0.07644,-0.01119,-0.06633
-0.09656,-0.04526,-0.05182
-0.09023,-0.02480,-0.08258
-0.05856,-0.06206,-0.08400
-0.04821,-0.05679,-0.09039
-0.03815,-0.01636,-0.08427
-0.06485,-0.01444,-0.10520
-0.04498,-0.01881,-0.07956
-0.08363,-0.00744,-0.08203
-0.08461,-0.02818,-0.04398
-0.09621,-0.00380,-0.04890
-0.08093,-0.02504,-0.07292
-0.11870,-0.05781,-0.05376
-0.09948,-0.04386,-0.09198
-0.10399,-0.01092,-0.10384
-0.12353,-0.06477,-0.13131
-0.10180,-0.05421,-0.13259
-0.09695,-0.06305,-0.13125
-0.09309,-0.05701,-0.13868
-0.11654,-0.04313,-0.13554
-0.07594,-0.01673,-0.11953
-0.08455,0.01923,-0.12619
-0.08559,-0.00672,-0.13259
-0.08254,-0.01837,-0.13375
-0.03092,0.01608,-0.15994
-0.02538,0.02419,-0.14591
-0.04067,0.04607,-0.15618
-0.02947,0.03059,-0.16413
-0.05668,0.02369,-0.15159
-0.05205,0.01405,-0.12051
-0.07202,-0.00159,-0.12469
-0.05057,0.00261,-0.10812
-0.04633,0.02918,-0.13284
-0.07262,0.01910,-0.10748
-0.04923,0.01802,-0.14865
-0.03466,0.03647,-0.09805
-0.05795,0.00951,-0.12311
-0.07178,0.01337,-0.10742
-0.06022,-0.00462,-0.11673
-0.05281,-0.01150,-0.08222
-0.06673,0.04100,-0.14165
-0.05873,0.02480,-0.10317
-0.07981,0.00593,-0.09123
-0.02980,0.00502,-0.09435
-0.06771,-0.03831,-0.09757
-0.06074,-0.02705,-0.08884
-0.06092,-0.00630,-0.08219
-0.04342,-0.01940,-0.08161
-0.01717,-0.04792,-0.08735
-0.02129,-0.04166,-0.07998
-0.00741,-0.02761,-0.09573
0.00949,-0.00239,-0.10209
0.00675,0.00383,-0.09909
-0.00538,-0.00770,-0.06226
-0.03008,0.07083,-0.04213
-0.02632,0.02582,-0.02460
-0.06915,0.00412,-0.02863
-0.09813,0.01899,-0.02465
-0.08826,0.01503,-0.01993
-0.10121,-0.00989,-0.01727
-0.08066,0.00539,-0.00239
-0.05941,-0.02598,-0.00868
-0.04411,-0.07392,-0.03409
-0.03770,-0.06564,-0.03626
-0.02208,-0.05464,-0.05952
-0.01647,-0.02915,-0.04267
0.04181,0.02908,-0.03799
0.04064,-0.02989,-0.03214
0.04917,0.00231,-0.04940
0.08469,0.02056,-0.01304
0.06134,0.07683,-0.02518
0.07468,0.03403,-0.02590
0.08617,0.01763,-0.01632
0.05281,0.02068,0.01174
0.03177,0.04407,0.00886
0.00365,-0.00927,0.03236
0.01111,-0.00062,0.01696
0.00446,0.02371,0.02326
0.00812,0.02633,0.02219
0.00007,0.03080,0.01111
-0.03627,0.00588,0.01498
-0.02667,0.01011,0.03140
-0.03204,0.02126,0.06941
-0.03634,-0.00700,0.05344
-0.03864,-0.07310,0.08863
-0.00743,-0.08763,0.05617
0.02711,-0.11890,0.05958
0.06880,-0.09418,0.04572
0.08055,-0.10696,0.03299
0.07304,-0.13484,0.01804
0.08656,-0.08318,0.01417
0.14173,-0.07612,0.02356
0.12711,-0.07702,0.02085
0.12286,-0.09220,0.04110
0.08940,-0.02506,0.02679
0.09870,-0.05391,-0.01943
0.07479,-0.05114,0.05640
0.04897,-0.03817,0.03573
0.03677,-0.03404,0.04374
-0.00295,-0.01815,0.06677
-0.00829,-0.03234,0.06660
-0.01956,-0.05835,0.08903
-0.02673,-0.05864,0.12101
-0.05829,-0.13395,0.10680
0.00169,-0.09864,0.06775
-0.04602,-0.09047,0.08883
-0.04180,-0.12034,0.08373
-0.02298,-0.07476,0.06540
0.02825,-0.08635,0.04503
0.08282,-0.05717,0.02906
0.09422,0.01567,0.01610
0.09537,-0.03096,-0.01117
0.10876,-0.02009,-0.03902
0.10840,0.04123,-0.01432
0.10557,0.03840,-0.00702
0.07165,0.03914,0.00966
0.04444,0.03052,0.01561
0.00492,0.04960,0.03689
-0.01347,0.05763,0.04373
-0.04942,0.04337,0.08024
-0.03815,0.01020,0.05171
-0.01671,-0.05233,0.07718
0.03692,-0.06702,0.05030
0.05608,-0.08366,0.03367
0.08007,-0.11560,0.01656
0.08682,-0.14834,-0.00222
0.09521,-0.10153,-0.02162
0.11114,-0.09812,-0.00314
0.12857,-0.07024,-0.01966
0.12378,-0.02313,0.00358
0.10594,0.00232,0.01149
0.09652,0.00530,0.05323
0.05239,0.04357,0.02161
0.03970,0.04973,0.07342
0.03137,0.09844,0.05162
0.06327,0.08816,0.08417
0.07835,0.06592,0.07849
0.03831,0.06789,0.06875
0.05150,0.06343,0.06890
0.07511,0.04613,0.05979
0.11380,0.05893,0.07522
0.09133,0.03254,0.05482
0.12301,0.05928,0.01292
0.11939,0.05299,0.04724
0.12757,0.02258,0.04437
0.11087,0.02983,0.06959
0.14129,0.03867,0.04330
0.14221,0.00864,0.05985
0.11700,0.02272,0.08638
0.08086,0.02313,0.12022
0.07181,0.00388,0.10795
0.06063,-0.03358,0.12953
0.05745,0.00454,0.15617
0.05910,-0.02420,0.12031
0.06556,-0.03076,0.12954
0.07592,0.00648,0.12967
0.06275,-0.02457,0.15622
0.06023,-0.01205,0.14808
0.08499,-0.01426,0.15185
0.05913,0.03278,0.12831
0.05486,0.00119,0.11215
0.09333,-0.03491,0.11776
0.05999,-0.04009,0.12431
0.08500,-0.04241,0.10269
0.08485,-0.03042,0.10062
0.08346,-0.04496,0.08187
0.06425,-0.06360,0.09347
0.09537,-0.06074,0.07696
0.09836,-0.01070,0.08771
0.08611,-0.05394,0.05359
0.08731,-0.06841,0.07816
0.07538,-0.03787,0.06929
0.08430,-0.03884,0.04887
0.08776,-0.03223,0.09379
0.07602,-0.01167,0.03505
0.09265,0.03744,0.05665
0.08313,0.00299,0.05158
0.09386,-0.00730,0.02367
0.04606,0.00243,0.01982
0.04571,0.02365,0.03951
-0.00538,0.01969,0.06208
-0.00897,0.04707,0.08063
-0.03789,0.01676,0.06850
-0.02478,0.00733,0.08343
-0.05334,-0.00534,0.07693
-0.06911,0.00220,0.09068
-0.07124,-0.02494,0.06735
-0.04477,-0.02990,0.06888
-0.04231,-0.05731,0.04733
-0.05039,-0.08016,0.04847
-0.03785,-0.03218,0.02098
-0.03502,-0.05647,0.00583
-0.01688,-0.05211,0.00208
0.01202,-0.07588,-0.02689
0.00595,-0.09674,-0.04678
0.05496,-0.08897,-0.05670
0.02904,-0.07330,-0.08252
-0.00313,-0.10476,-0.04486
-0.04147,-0.14490,-0.01729
-0.10181,-0.14406,0.03573
-0.18277,-0.11023,0.05671
-0.18477,-0.10912,0.06756
-0.24342,-0.10829,0.09633
-0.20480,-0.07778,0.08208
-0.16882,-0.06351,0.03301
-0.14762,-0.01956,-0.02414
-0.04686,-0.01729,-0.03186
-0.03413,0.02113,-0.06586
0.00871,0.03194,-0.05653
0.04654,0.03810,-0.08457
0.02481,0.02503,-0.09904
0.05213,-0.00059,-0.13594
0.07883,-0.00022,-0.12903
0.09089,-0.01733,-0.14727
0.10420,-0.04065,-0.16971
0.09620,-0.03987,-0.17973
0.11466,-0.07782,-0.12937
0.03822,-0.08854,-0.11549
-0.01663,-0.11585,-0.08398
-0.05870,-0.15747,-0.00952
-0.13058,-0.16245,0.01517
-0.19301,-0.16940,0.02086
-0.20083,-0.17203,0.06606
-0.19767,-0.17139,0.02353
-0.18747,-0.12874,0.01129
-0.13690,-0.06983,0.00283
-0.07255,-0.09212,-0.04694
-0.01365,0.00321,-0.07555
0.01846,-0.01766,-0.11748
0.03275,-0.01219,-0.14839
0.03959,0.01717,-0.13601
0.07480,0.06142,-0.15451
0.06929,0.04944,-0.16646
0.05613,0.00291,-0.18021
0.05603,0.00220,-0.19074
0.06760,0.02147,-0.18786
0.05780,0.01127,-0.18235
0.03270,0.01497,-0.17716
0.00352,-0.01430,-0.14312
0.00754,0.01252,-0.13096
-0.02053,0.02977,-0.15109
-0.05340,0.02141,-0.11640
-0.09621,-0.00521,-0.06276
-0.09176,-0.01226,-0.07341
-0.07720,-0.02147,-0.10111
-0.08585,-0.04061,-0.09723
-0.06345,-0.05790,-0.08967
-0.06433,-0.03690,-0.08975
-0.03534,0.01855,-0.08529
-0.03089,-0.00010,-0.09390
-0.05079,-0.04251,-0.11226
-0.01109,-0.07089,-0.09722
-0.01803,-0.07093,-0.11724
-0.02472,-0.08590,-0.13838
-0.01240,-0.05745,-0.12971
0.00521,-0.05772,-0.15389
-0.00279,-0.05630,-0.14741
0.00695,-0.03106,-0.15164
0.01150,-0.03103,-0.13627
-0.00655,0.00369,-0.13692
-0.03213,0.00452,-0.11982
-0.05680,-0.01593,-0.11756
-0.06094,-0.01455,-0.08940
-0.09223,-0.03116,-0.08278
-0.12780,-0.04706,-0.07312
-0.10789,-0.07077,-0.08443
-0.13979,-0.08193,-0.08567
-0.14674,-0.06908,-0.07689
-0.10649,-0.05591,-0.07358
-0.09357,-0.05149,-0.07754
-0.10781,-0.02899,-0.08374
-0.09602,-0.04828,-0.09545
-0.06784,-0.00239,-0.12863
-0.08991,-0.01044,-0.10343
-0.07273,-0.01962,-0.14643
-0.03546,0.01877,-0.17429
-0.06552,-0.01169,-0.14468
-0.06565,-0.00599,-0.15764
-0.05988,0.02499,-0.17218
-0.05980,0.01882,-0.17069
-0.06763,0.01404,-0.15999
-0.04119,0.02844,-0.15029
-0.06766,0.02780,-0.17273
-0.07608,0.05258,-0.16361
-0.08321,0.02339,-0.17174
-0.09387,0.00334,-0.18701
-0.07725,-0.00085,-0.16604
-0.12847,0.02018,-0.16618
-0.11881,-0.00880,-0.13551
-0.12767,0.01776,-0.16397
-0.13448,-0.00486,-0.16322
-0.14775,0.00892,-0.15340
-0.12318,0.01185,-0.14854
-0.09609,-0.01224,-0.17144
-0.08255,-0.00310,-0.20425
-0.07267,-0.00365,-0.18839
-0.06482,-0.04560,-0.20273
-0.07037,-0.05037,-0.22344
-0.07294,-0.04028,-0.22751
-0.06822,-0.01914,-0.21822
-0.06971,-0.03882,-0.22551
-0.06469,-0.00904,-0.19234
-0.09705,-0.00500,-0.23005
-0.10103,0.01930,-0.21491
-0.09567,0.01567,-0.21170
-0.08431,0.05245,-0.22358
-0.11445,0.03304,-0.21154
-0.13689,0.04530,-0.18433
-0.10859,-0.00281,-0.21665
-0.10224,0.01137,-0.21527
-0.11128,0.00116,-0.20517
-0.09734,-0.03482,-0.20867
-0.09080,-0.01112,-0.19304
-0.09815,-0.04447,-0.17607
-0.11219,-0.03806,-0.20372
-0.10333,-0.03221,-0.19739
-0.07636,-0.02356,-0.17491
-0.08755,-0.03901,-0.16229
-0.07291,0.00110,-0.19063
-0.04023,-0.01149,-0.20270
-0.02526,0.00978,-0.18426
-0.06378,0.02215,-0.20264
-0.03869,0.00597,-0.16682
-0.08639,-0.00174,-0.14193
-0.09115,0.02024,-0.14904
-0.10956,-0.00294,-0.15223
-0.13227,0.02948,-0.11877
-0.11976,-0.01211,-0.14253
-0.11490,0.02922,-0.14940
-0.10082,0.00945,-0.14546
-0.07660,-0.00275,-0.13451
-0.05015,-0.00245,-0.15478
-0.01987,0.01470,-0.17637
0.00664,0.02277,-0.17961
-0.01172,0.00673,-0.21062
0.01203,-0.00119,-0.17572
0.02668,0.01713,-0.16658
-0.00025,0.00657,-0.15702
-0.00305,-0.01618,-0.15600
-0.03685,0.01516,-0.13323
-0.04963,-0.02972,-0.13354
-0.07293,-0.00528,-0.12079
-0.08473,-0.01303,-0.09954
-0.07837,-0.00439,-0.10335
-0.06321,-0.02923,-0.07338
-0.08739,-0.01811,-0.08356
-0.07646,-0.04200,-0.10229
-0.07208,-0.04833,-0.10104
-0.03883,-0.02748,-0.09099
-0.04552,-0.02021,-0.08831
-0.02909,-0.00071,-0.14345
0.04067,0.01780,-0.15051
0.07416,0.03854,-0.14422
0.07304,0.05542,-0.12667
0.04987,0.10586,-0.10846
0.05683,0.08321,-0.09814
0.04987,0.10062,-0.07362
0.04678,0.08889,-0.06591
0.03794,0.06188,-0.07770
-0.01028,0.05694,-0.05582
-0.00775,0.05710,-0.05886
0.01910,0.03680,-0.04771
-0.00781,0.00444,0.00435
-0.01784,-0.00328,0.01262
-0.04234,0.02057,0.03038
-0.02064,-0.03199,0.04162
-0.02172,-0.01673,0.01002
0.00644,-0.04546,0.00907
0.00083,-0.06758,0.03225
-0.01077,-0.07045,0.05180
0.01058,-0.12810,0.05236
-0.00358,-0.14631,0.05035
0.01932,-0.16531,0.05053
0.01094,-0.17436,0.03730
-0.01475,-0.20691,0.02055
-0.00488,-0.18729,0.01697
0.02335,-0.16839,0.01794
0.08070,-0.11704,0.03143
0.08154,-0.08678,0.02664
0.09244,-0.08917,0.03073
0.12651,-0.03420,0.01998
0.09523,-0.02786,0.03483
0.07742,0.00828,0.08630
0.05933,0.00541,0.14054
0.05704,-0.00887,0.10930
0.02926,-0.05123,0.10054
0.00095,-0.03834,0.07590
0.03395,-0.05853,0.10478
0.04085,-0.05295,0.09622
0.04987,-0.05062,0.08630
0.06209,-0.08361,0.06621
0.08768,-0.04652,0.07054
0.11896,-0.08122,0.03578
0.10693,-0.04594,0.09646
0.14862,-0.09094,0.05939
0.14121,-0.09810,0.01657
0.15164,-0.07354,0.05949
0.11584,-0.06159,0.05105
0.15421,-0.05146,0.07629
0.15590,-0.04081,0.09078
0.12612,0.00007,0.07539
0.15992,0.02346,0.09880
0.13234,0.00683,0.09369
0.13749,0.02016,0.10526
0.13702,-0.02497,0.11978
0.15709,0.01921,0.12913
0.13154,0.03939,0.14186
0.16305,0.01466,0.14190
0.12029,-0.00613,0.13936
0.13664,-0.04357,0.14525
0.13220,-0.07147,0.12888
0.15352,-0.08421,0.15569
0.12192,-0.10628,0.14065
0.13171,-0.09258,0.14061
0.13433,-0.05515,0.16540
0.12910,-0.07552,0.19044
0.12530,-0.05165,0.14025
0.12907,-0.05006,0.18942
0.14128,-0.08857,0.16705
0.14074,-0.04303,0.15147
0.13061,-0.02670,0.15688
0.11501,0.01887,0.16473
0.11239,0.03381,0.17184
0.11443,0.02525,0.15654
0.11490,0.03681,0.17178
0.10363,0.06187,0.14833
0.12515,0.05683,0.16377
0.13572,0.04145,0.15464
0.15717,0.06031,0.14942
0.11728,0.04651,0.13260
0.11381,0.05857,0.13723
0.11286,0.04649,0.16810
0.09256,0.01600,0.17074
0.06443,0.04495,0.17363
0.07861,0.03508,0.16373
0.06612,0.00093,0.17819
0.09347,0.02535,0.15502
0.12019,0.03484,0.15684
0.10863,0.03886,0.15187
0.11887,0.02647,0.13393
0.08389,-0.00829,0.14153
0.10296,-0.00371,0.15652
0.05181,-0.01071,0.15673
0.08190,-0.01241,0.15189
0.07187,0.05288,0.11618
0.07996,0.03787,0.15960
0.07599,-0.00252,0.13340
0.06775,0.06563,0.12229
0.08551,0.08218,0.14364
0.05758,0.02575,0.15418
0.05269,-0.00571,0.14546
0.04461,0.00994,0.15841
0.05998,0.00831,0.11864
0.06307,0.00510,0.10246
0.05257,-0.00864,0.09426
0.07895,0.00998,0.09150
0.09903,-0.00083,0.06017
0.09349,0.01207,0.08810
0.07692,-0.02527,0.06713
0.09617,0.00818,0.04758
0.10029,-0.02126,0.04968
0.09707,-0.02373,0.05229
0.07751,-0.04022,0.04346
0.11463,0.00422,0.03365
0.08275,-0.05631,0.00583
0.09113,-0.02148,0.00628
0.08093,-0.03535,0.00963
0.06500,-0.01207,-0.02357
0.04555,-0.01240,0.01753
0.01216,-0.00691,0.03642
-0.01184,0.00578,0.02760
-0.04710,-0.00906,0.05172
-0.04229,-0.00892,0.06148
-0.03735,0.02869,0.05157
-0.05702,0.00796,0.02495
-0.01915,-0.00546,0.03042
-0.00111,0.01979,0.02318
0.01944,-0.01372,0.01811
0.00089,0.00084,-0.00302
0.02531,-0.02160,-0.02066
0.01244,-0.00396,-0.03160
0.04858,-0.00785,-0.01940
0.01628,-0.00266,-0.06274
-0.00616,-0.00404,-0.04712
0.02591,-0.02316,-0.05277
0.01217,0.00442,-0.10072
0.00893,-0.06073,-0.05318
0.00958,-0.06342,-0.10866
-0.00544,-0.02947,-0.08422
0.00048,-0.02944,-0.07835
-0.03656,-0.06846,-0.06175
-0.07985,-0.03131,-0.05036
-0.11812,-0.05583,-0.03633
-0.12415,-0.08420,-0.02128
-0.11363,-0.07796,-0.06614
-0.07774,-0.06683,-0.05460
-0.09749,-0.09210,-0.04493
-0.08169,-0.07372,-0.07670
-0.04408,-0.09663,-0.09729
-0.04579,-0.10082,-0.12108
-0.05893,-0.07786,-0.13815
-0.05886,-0.06342,-0.14469
-0.03723,-0.06214,-0.16480
-0.02124,-0.05438,-0.17772
-0.01248,-0.04501,-0.16457
-0.02821,-0.02335,-0.21958
-0.03476,-0.06723,-0.23269
-0.03965,-0.02571,-0.24118
-0.01880,-0.01961,-0.28770
-0.02453,-0.03433,-0.24401
-0.07038,-0.01752,-0.24285
-0.11275,-0.05880,-0.24675
-0.15170,-0.08207,-0.24890
-0.17283,-0.08801,-0.24876
-0.18190,-0.10028,-0.25690
-0.21467,-0.14768,-0.22690
-0.24258,-0.13446,-0.26245
-0.26087,-0.12892,-0.25973
-0.26592,-0.14882,-0.26965
-0.28289,-0.12949,-0.30537
-0.24743,-0.10470,-0.26738
-0.24051,-0.11079,-0.31118
-0.22365,-0.05045,-0.34843
-0.19828,-0.03206,-0.33336
-0.16858,0.01525,-0.34547
-0.17210,-0.03145,-0.33824
-0.15020,-0.02136,-0.35697
-0.15193,-0.03865,-0.38526
-0.16099,-0.03776,-0.38554
-0.15900,-0.02021,-0.38230
-0.15365,0.01155,-0.35570
-0.13312,-0.01350,-0.37244
-0.13278,0.01557,-0.32800
-0.13866,0.07163,-0.32477
-0.12662,0.09706,-0.31437
-0.14116,0.08334,-0.28252
-0.14610,0.03693,-0.29914
-0.14198,0.03369,-0.25801
-0.16400,0.02354,-0.22716
-0.13311,0.01293,-0.25307
-0.14561,0.01094,-0.22488
-0.12163,0.01523,-0.21199
-0.09399,-0.00685,-0.20195
-0.10983,0.01211,-0.19531
-0.08857,-0.01203,-0.20897
-0.07044,0.01590,-0.18649
-0.07320,0.03074,-0.17180
-0.08312,0.02893,-0.18566
-0.06747,0.03983,-0.19533
-0.07063,0.01925,-0.16816
-0.05182,0.03785,-0.12873
-0.05512,0.04436,-0.13919
-0.05927,0.03192,-0.07825
-0.06508,0.02696,-0.09103
-0.06901,0.01551,-0.08013
-0.05890,-0.02933,-0.06191
-0.07955,-0.02782,-0.04060
-0.05808,-0.03560,-0.02461
-0.05842,-0.05374,-0.00253
-0.05795,-0.08629,0.00229
-0.05622,-0.11830,-0.01168
-0.02861,-0.07672,-0.00456
-0.02957,-0.10358,-0.06979
-0.03182,-0.08559,-0.07336
0.00738,-0.08018,-0.06729
0.01467,-0.03488,-0.03493
0.01424,-0.02395,-0.01135
0.02726,-0.00982,-0.02110
0.00080,-0.00226,-0.00538
0.03168,0.06839,0.00224
0.00461,0.06076,0.03000
-0.03603,0.08224,0.02404
-0.02429,0.06198,0.06418
-0.05148,0.06143,0.06511
-0.04350,0.03212,0.04747
-0.03374,0.00744,0.05773
-0.03449,0.02677,0.02283
-0.02630,-0.00297,0.01587
-0.02896,-0.00779,0.00086
-0.01221,-0.01854,0.01110
-0.00722,0.01848,-0.03262
-0.00763,-0.00606,-0.00976
-0.03837,0.00225,0.00079
-0.02742,-0.02510,-0.00170
-0.00488,0.00231,-0.00224
-0.00440,0.01485,-0.01850
0.01107,0.05006,-0.04558
0.01622,0.04126,-0.05731
0.08088,0.08800,-0.05206
0.05256,0.10964,-0.08159
0.08449,0.13856,-0.07199
0.07272,0.14230,-0.06900
0.04720,0.21669,-0.03983
0.04931,0.21407,-0.05324
0.04045,0.24694,-0.04917
0.04056,0.23256,0.00692
-0.01761,0.23713,0.01808
-0.01831,0.22881,0.00633
-0.01325,0.23684,0.01353
-0.00745,0.24570,-0.00030
-0.00693,0.23056,0.00758
0.00132,0.25951,0.00123
-0.00589,0.26216,0.02255
-0.00357,0.21276,0.00250
-0.00631,0.19731,0.02663
-0.02569,0.15908,-0.00295
-0.01582,0.15952,0.03930
-0.02923,0.13842,0.01119
-0.02689,0.11758,0.01475
-0.01273,0.09807,0.03185
0.00920,0.05907,0.00137
-0.00318,0.05698,0.01177
0.01430,0.07686,-0.01079
0.02175,0.08579,-0.03204
0.03227,0.11074,-0.01618
0.04081,0.12958,0.01388
0.00574,0.13343,0.00680
-0.00121,0.15467,0.01544
-0.04278,0.15647,0.00852
-0.02063,0.19574,0.00540
-0.00217,0.19646,0.02502
0.00162,0.17020,0.00681
-0.01775,0.17208,0.03186
-0.02060,0.17285,0.02709
-0.04297,0.16061,0.04962
-0.00451,0.14489,0.03717
-0.02708,0.10355,0.04729
-0.03639,0.09594,0.06296
-0.03874,0.03502,0.04284
-0.02617,0.03963,0.04726
-0.04151,0.06310,0.02871
-0.04680,0.04044,0.03723
-0.04127,0.05194,0.03942
-0.03314,-0.01394,0.03596
-0.00972,-0.01385,0.02663
-0.03318,-0.01027,0.02367
-0.02194,-0.01767,0.03019
-0.01261,0.02006,0.01519
-0.02144,0.02498,-0.00631
-0.01411,0.05098,-0.01123
-0.01507,0.03663,-0.00871
0.02677,0.06329,-0.01941
0.00457,0.06710,-0.02316
0.02352,0.06721,0.00390
-0.00762,0.06661,0.01534
-0.01810,0.03316,0.01884
-0.03463,0.03671,-0.01078
-0.02565,0.02662,0.01473
-0.01449,0.01637,-0.00824
-0.04048,-0.01775,0.00351
0.01252,-0.02389,0.00771
-0.00948,-0.04367,-0.00152
0.03430,-0.05705,0.00418
0.00521,-0.04569,-0.01454
0.00148,-0.05643,-0.03250
0.01757,-0.10349,-0.04175
0.02228,-0.13089,-0.02907
0.02550,-0.14596,-0.03443
0.02011,-0.15949,-0.03145
0.03988,-0.16898,-0.02189
0.07313,-0.20770,-0.05051
0.02177,-0.20330,-0.04361
0.04340,-0.21329,-0.04239
0.04966,-0.24702,-0.05930
0.06558,-0.24387,-0.08400
0.07428,-0.23974,-0.05724
0.04763,-0.21898,-0.04931
0.04313,-0.20579,-0.04809
0.06413,-0.19517,-0.03796
0.05939,-0.19693,-0.03188
0.05502,-0.21066,-0.04437
0.02619,-0.20089,-0.03675
-0.00666,-0.19600,-0.03427
0.00194,-0.20354,-0.03298
0.01394,-0.18486,-0.03023
0.00281,-0.17880,-0.02634
0.03284,-0.19448,0.00922
0.02257,-0.17360,-0.00891
0.01576,-0.20784,-0.03949
0.01978,-0.24166,-0.04561
0.02300,-0.22695,-0.03807
0.00887,-0.22001,-0.03876
0.02974,-0.24916,-0.04698
0.02666,-0.25403,-0.03518
0.04706,-0.23179,-0.04287
0.03308,-0.22171,-0.02616
0.04858,-0.25299,-0.05867
0.03235,-0.25755,-0.05610
0.05813,-0.26096,-0.03622
0.02246,-0.26331,-0.02557
0.01145,-0.26312,-0.02148
-0.00053,-0.26878,-0.02774
0.00835,-0.31348,-0.05148
0.00412,-0.32726,-0.04642
-0.01936,-0.34798,-0.03502
-0.03370,-0.32863,-0.04968
-0.02548,-0.34583,-0.04535
-0.04610,-0.38249,-0.04496
-0.04962,-0.36611,-0.04574
-0.04323,-0.33745,-0.02965
-0.03859,-0.34443,-0.05234
-0.06256,-0.38949,-0.04155
-0.02926,-0.34984,-0.04877
-0.01331,-0.35123,-0.04286
-0.01604,-0.37727,-0.06835
-0.01986,-0.38204,-0.07589
0.00922,-0.38627,-0.09866
0.01490,-0.40901,-0.09446
0.02399,-0.43253,-0.09594
0.01967,-0.45546,-0.09666
-0.02265,-0.44344,-0.11023
-0.01118,-0.48275,-0.11325
-0.00187,-0.43451,-0.09160
-0.00239,-0.43949,-0.11587
0.00678,-0.42540,-0.08066
-0.00578,-0.42005,-0.06568
-0.03209,-0.35001,-0.06822
-0.03855,-0.34570,-0.07110
-0.04174,-0.33050,-0.06703
-0.00639,-0.31635,-0.05135
-0.00791,-0.26794,-0.05620
0.01363,-0.24471,-0.03157
-0.01653,-0.21978,-0.03510
-0.03310,-0.13476,-0.04246
-0.02744,-0.12638,-0.00485
-0.03261,-0.10209,0.00426
-0.06018,-0.09646,0.00586
-0.05478,-0.06193,0.00086
-0.06228,-0.04577,0.00843
-0.03975,-0.05469,0.01729
-0.03672,-0.00437,0.01454
-0.02225,0.01363,0.00218
0.00476,0.00891,-0.02356
0.02663,-0.01122,-0.01817
-0.00036,0.00527,0.00417
-0.00996,-0.00769,0.00125
-0.01423,-0.01767,0.02973
-0.01400,-0.06380,0.03818
-0.02774,-0.06079,0.02589
-0.03318,-0.07475,0.01587
-0.01765,-0.08251,0.02894
0.00214,-0.07421,0.01507
-0.00698,-0.06521,-0.01317
0.02848,-0.04688,0.01051
0.01541,-0.04493,0.01420
0.05744,-0.02833,0.00300
0.05849,-0.03039,-0.01562
0.01842,-0.06337,-0.00023
0.03890,-0.00146,-0.00217
0.05582,-0.00436,-0.00651
0.07029,0.00060,0.01210
0.03114,0.02201,-0.03237
0.06925,0.03906,-0.03641
0.09644,0.04051,-0.04402
0.09562,0.13664,-0.06205
0.12674,0.13378,-0.05603
0.12002,0.16815,-0.07035
0.07853,0.19344,-0.04269
0.03792,0.21530,-0.01244
0.02519,0.21524,0.01249
0.00495,0.23353,-0.00250
0.01761,0.21624,-0.00024
0.00436,0.20262,0.00391
-0.01026,0.21504,-0.02780
-0.00157,0.24001,-0.02667
0.01607,0.19474,-0.00963
0.02671,0.19773,-0.03609
0.05965,0.19107,-0.04587
0.04111,0.15962,-0.02973
0.04325,0.11446,-0.02375
0.03308,0.09244,-0.03129
0.02301,0.06747,-0.03941
0.03329,0.03816,-0.05994
0.03339,0.05174,-0.04530
0.03141,0.04495,-0.03251
0.05899,0.06071,-0.04755
0.04795,0.06328,-0.02878
0.04275,0.07136,-0.05354
0.04792,0.07367,-0.05469
0.02468,0.11126,-0.01512
0.00604,0.13636,-0.01366
0.01006,0.11959,0.00698
-0.01812,0.14815,0.01416
-0.02322,0.14386,-0.00615
-0.00234,0.18499,0.00816
-0.00644,0.20567,0.01056
-0.02747,0.23610,0.02382
0.02419,0.25360,-0.00573
-0.00332,0.26157,-0.00109
0.02459,0.33060,-0.01763
0.01673,0.22755,-0.00836
-0.02702,0.21180,0.02440
-0.00345,0.21649,0.00787
-0.01235,0.19954,0.00773
-0.01013,0.19704,-0.00363
0.01351,0.12273,0.02274
-0.03005,0.08406,-0.00699
-0.05980,0.05498,-0.02007
0.01970,-0.13796,-0.05955
-0.00785,-0.20153,-0.09218
-0.02419,-0.10715,-0.07474
-0.06619,-0.00680,-0.00505
0.00202,0.35509,0.11543
0.12592,0.43668,0.15005
-0.03660,0.20703,-0.04774
-0.04123,0.19567,-0.04813
-0.01328,0.41530,-0.00924
-0.02483,0.34890,-0.01254
0.02464,0.34089,-0.00399
0.01806,0.39672,0.01877
0.00721,0.28477,-0.03087
-0.03648,0.22515,-0.04975
-0.03479,0.21960,0.01545
-0.00172,0.21681,0.00602
-0.01197,0.18570,0.00174
-0.01602,0.10987,-0.00397
0.00521,0.08512,-0.01916
0.03528,0.06832,-0.03208
0.03828,0.03087,-0.04897
0.07219,-0.00158,-0.05416
0.09409,-0.01405,-0.08144
0.11227,-0.02297,-0.11350
0.12681,-0.00421,-0.10729
0.11145,0.01295,-0.12395
0.12628,0.04296,-0.10941
0.12188,0.09087,-0.11951
0.10877,0.14899,-0.08326
0.08628,0.15354,-0.07495
0.06328,0.19930,-0.06220
0.05097,0.22821,-0.02371
0.00428,0.26486,-0.00557
-0.02414,0.28605,-0.01298
-0.00587,0.36047,-0.00091
-0.05286,0.31428,0.04636
-0.04663,0.28224,0.02501
-0.08528,0.29501,0.06030
-0.09635,0.31413,0.07775
-0.08349,0.29320,0.05475
-0.08320,0.24062,0.05283
-0.04571,0.27482,0.05239
-0.03386,0.26270,0.02162
-0.02175,0.22000,0.02826
-0.01397,0.21945,0.02463
-0.03236,0.18728,0.00559
-0.00746,0.17214,0.01816
-0.01316,0.14699,0.00287
-0.00900,0.13763,0.01385
0.01912,0.08969,0.00450
0.00356,0.08958,-0.00981
0.02853,0.08907,-0.00620
0.03154,0.09495,-0.01354
0.01502,0.08924,-0.03500
0.01659,0.10063,-0.00443
0.02096,0.09169,-0.02434
0.03738,0.06851,-0.01882
0.01932,0.05116,-0.03424
0.04081,0.06250,-0.01136
0.02161,0.03333,-0.00760
0.02292,0.02146,-0.00663
0.01247,0.01769,-0.02869
0.00326,0.00996,-0.01577
-0.00121,0.03484,-0.00161
-0.01860,0.02637,0.00596
0.00611,0.04635,-0.00614
-0.01110,0.05294,-0.01057
0.00967,0.04965,-0.02272
-0.02464,0.06278,0.01918
0.01673,0.07354,0.01424
0.01641,0.07983,-0.02874
0.00860,0.06446,0.00346
0.01907,0.04187,-0.01437
-0.00351,0.03226,-0.00359
0.02579,0.02393,0.00343
0.00951,0.00604,0.01019
-0.01205,-0.01715,-0.01065
-0.02545,-0.01432,0.01629
-0.02862,0.00106,0.01909
-0.02355,0.00012,0.02941
-0.01636,0.03494,0.00229
-0.02791,-0.01350,0.01386
-0.00542,-0.00617,0.01603
-0.00813,-0.02110,-0.01361
0.01569,-0.04094,-0.01771
0.00878,-0.02701,0.02074
-0.01139,-0.06116,0.02229
-0.03774,-0.09728,-0.00624
-0.05919,-0.11281,-0.00229
-0.04480,-0.11432,0.03730
-0.04395,-0.11079,0.03141
-0.02658,-0.14107,0.02033
-0.03679,-0.18967,-0.00800
-0.02455,-0.16133,0.00917
-0.00726,-0.17366,0.00975
-0.01735,-0.16808,-0.01009
0.00332,-0.20295,-0.03014
-0.00219,-0.23107,-0.02587
-0.00626,-0.26881,-0.03332
0.01941,-0.25655,-0.03469
0.01581,-0.29473,-0.04619
0.04549,-0.30811,-0.05274
0.02196,-0.28900,-0.03470
0.01667,-0.32676,-0.04235
0.00589,-0.31074,-0.02477
-0.02145,-0.28798,-0.03440
-0.03304,-0.29904,-0.02285
-0.01639,-0.28481,-0.02340
-0.03708,-0.30129,0.01883
-0.03105,-0.29037,0.01354
-0.01073,-0.27521,-0.01202
-0.01453,-0.28549,-0.00448
-0.04282,-0.29134,0.01302
-0.04180,-0.30088,-0.00186
-0.00298,-0.28094,0.00318
-0.01373,-0.26353,-0.02927
-0.01468,-0.28303,-0.00447
-0.00964,-0.25255,-0.04722
0.03054,-0.20202,-0.02655
-0.00513,-0.21168,-0.01233
0.00379,-0.21361,-0.00397
0.02702,-0.23355,-0.02149
0.00085,-0.24096,-0.02816
0.02015,-0.25264,-0.02588
-0.01297,-0.25296,-0.05461
-0.02536,-0.22780,-0.06148
0.03821,-0.24874,-0.03028
-0.01543,-0.26299,-0.03613
-0.01004,-0.30431,-0.03287
0.00484,-0.31490,-0.03108
-0.01189,-0.30132,-0.04972
-0.01555,-0.33295,-0.03051
-0.03257,-0.32145,-0.02927
-0.02936,-0.34449,-0.03959
-0.00179,-0.34369,-0.03342
-0.00314,-0.30779,-0.06100
0.00631,-0.31874,-0.02997
0.02144,-0.31831,-0.05068
0.03483,-0.31992,-0.06070
0.02293,-0.31049,-0.06581
0.04380,-0.33590,-0.07951
0.05659,-0.30333,-0.08491
0.04145,-0.34481,-0.08486
0.03314,-0.33307,-0.07826
0.03366,-0.32725,-0.07712
0.02769,-0.32807,-0.05318
0.02120,-0.33564,-0.05662
0.01070,-0.32439,-0.08891
0.02066,-0.32368,-0.04998
0.01825,-0.36033,-0.07334
-0.01280,-0.37306,-0.06813
0.01011,-0.32505,-0.06047
0.01951,-0.28824,-0.03378
-0.00704,-0.30271,-0.03173
-0.00255,-0.26208,-0.03240
-0.01828,-0.22202,-0.02568
-0.03121,-0.21622,-0.02193
-0.01286,-0.19757,-0.03023
-0.01716,-0.15467,-0.01654
-0.01331,-0.14138,-0.04151
-0.03687,-0.11487,-0.02983
-0.04089,-0.09033,-0.02557
-0.04630,-0.07751,-0.01861
-0.06821,-0.07871,-0.00445
-0.09007,-0.08602,0.01228
-0.10913,-0.06077,0.02497
-0.11771,-0.02242,0.05344
-0.12340,-0.03280,0.06405
-0.09637,-0.04824,0.04366
-0.11749,-0.05202,0.02390
-0.08849,-0.04988,0.01206
-0.07458,-0.05327,0.00766
-0.04270,-0.04010,-0.02061
-0.00591,-0.10086,-0.01376
0.01238,-0.06964,-0.01923
0.03458,-0.06631,-0.03016
0.02396,-0.04878,-0.02540
0.03483,-0.03631,-0.02245
0.04015,-0.04062,-0.02186
0.04247,-0.07785,-0.00047
0.01621,-0.08128,-0.02649
0.01943,-0.08259,-0.02444
0.04636,-0.06522,-0.00595
0.01975,-0.10772,-0.02368
0.03885,-0.13051,-0.00983
0.00398,-0.09932,-0.03415
0.00518,-0.10630,-0.02244
0.03040,-0.08224,-0.00971
0.02764,-0.07019,-0.00730
0.01620,-0.04642,-0.03280
0.04121,-0.03949,-0.02971
0.04640,-0.01081,-0.02032
0.03167,-0.01373,-0.02425
0.03794,0.00319,-0.04015
0.08246,0.03299,-0.05799
0.04847,0.04830,-0.05318
0.08325,0.04711,-0.05316
0.05297,0.05247,-0.03825
0.08330,0.06160,-0.06819
0.07969,0.08584,-0.07207
0.06690,0.08190,-0.07090
0.06251,0.10003,-0.05515
0.07955,0.13516,-0.04228
0.02879,0.13792,-0.05021
0.01462,0.16355,-0.03514
-0.00882,0.15518,-0.03859
-0.00102,0.14134,-0.03242
-0.02457,0.15340,-0.01706
-0.01095,0.14729,0.01027
-0.01727,0.17463,-0.00846
-0.02213,0.16589,-0.00806
-0.00477,0.16304,-0.04210
0.00639,0.17851,-0.03113
-0.00468,0.19735,-0.02475
0.00997,0.19805,-0.04678
0.00689,0.16828,-0.03210
0.01168,0.16404,-0.01566
0.00392,0.12621,-0.00870
0.00453,0.11121,-0.01725
-0.04884,0.06179,-0.01357
-0.02008,0.03689,-0.00139
-0.03598,0.02112,-0.00148
-0.01370,0.00377,0.00485
0.00806,-0.00087,-0.05412
0.03068,0.00791,-0.04625
0.04903,0.03790,-0.06186
0.07798,0.06889,-0.02682
0.04187,0.08545,-0.02856
0.06617,0.14701,-0.02231
0.04493,0.07587,-0.03215
0.03221,0.13060,-0.04393
0.02729,0.15462,-0.00888
0.02942,0.13944,-0.01346
0.01140,0.15048,-0.00556
0.01175,0.18570,-0.01887
0.02520,0.18970,-0.03096
0.00856,0.17099,-0.01855
0.02294,0.16017,-0.01831
0.01170,0.14659,-0.02770
-0.01244,0.11991,-0.01415
0.01114,0.10517,-0.00150
0.00764,0.09662,0.00266
0.02213,0.21270,-0.00534
0.00016,0.15043,0.06565
-0.01066,0.03044,-0.00753
-0.00031,-0.01469,-0.04667
-0.03548,-0.05458,-0.04309
0.00396,-0.04718,-0.04574
0.02113,-0.00769,-0.04166
0.01810,-0.01580,-0.01378
0.01305,0.02913,-0.00930
0.01544,0.01696,-0.02177
0.00560,0.02412,-0.01681
0.05009,-0.00511,-0.02496
0.05971,-0.00303,0.00691
0.05592,-0.03212,-0.01577
0.03241,-0.03184,-0.02632
0.04672,-0.04547,-0.02460
0.06070,-0.05597,0.00327
0.05650,-0.02924,-0.04612
0.04835,-0.08424,-0.03309
0.05606,-0.07954,-0.03805
0.08112,-0.07424,-0.04230
0.11761,-0.04697,-0.05758
0.14506,-0.09560,-0.08635
0.13622,-0.07096,-0.09531
0.15394,-0.06147,-0.09644
0.13907,-0.07703,-0.08126
0.14809,-0.05132,-0.07073
0.11598,-0.04731,-0.06935
0.12963,-0.13503,-0.08563
0.11517,-0.13245,-0.04636
0.09785,-0.10735,-0.06799
0.10250,-0.10748,-0.04935
0.06843,-0.13635,-0.06427
0.00361,0.04701,-0.10973
-0.48289,0.87835,-0.10727
-0.23345,-0.30157,-0.01718
0.22134,1.27307,0.44354
0.31163,1.03110,0.20085
-0.06055,0.44993,-0.01317
-0.21309,0.08368,0.03890
-0.01303,-0.35932,-0.03960
0.12044,-0.45004,-0.07227
0.15076,-0.48870,-0.06220
0.06312,-0.36612,-0.06417
0.02408,-0.29929,-0.06097
0.02985,-0.26369,-0.03368
0.02961,-0.18971,-0.02599
0.04370,-0.06345,-0.07513
0.07145,-0.02530,-0.06841
0.12691,0.27728,-0.09678
0.25919,0.45708,-0.03665
0.13210,0.05697,-0.05930
0.01263,-0.10369,-0.03716
0.06712,-0.20804,-0.07892
0.00118,-0.25067,-0.06038
-0.01296,-0.28438,-0.05359
0.00257,-0.23912,-0.05871
0.01736,-0.11447,-0.06941
0.06043,0.08304,-0.02575
0.27305,0.36944,-0.01074
0.20405,0.91549,0.07369
-0.02552,-0.17182,0.02854
0.02138,-0.21213,-0.06086
0.03232,-0.03367,-0.05693
0.10999,0.08586,0.01779
0.03793,0.02243,-0.03703
0.02868,-0.09268,-0.06651
0.03469,-0.03451,-0.06495
0.06007,0.05569,-0.03527
0.04447,0.01216,-0.05133
0.03278,-0.07238,-0.05558
0.01640,-0.03572,-0.04819
0.04889,-0.01720,-0.03482
0.05207,-0.03233,-0.03847
0.00311,-0.03850,-0.05270
0.01867,-0.03303,-0.03271
0.00882,0.02715,-0.01068
0.02997,0.02547,-0.01971
0.04151,0.01772,-0.05027
0.02145,-0.03020,-0.02649
0.01347,-0.01785,-0.01990
0.02387,-0.01584,-0.02725
0.01203,-0.03907,-0.03493
0.02260,-0.05393,-0.02458
0.01720,-0.00134,-0.03658
0.01615,0.00207,-0.02353
-0.01091,-0.00338,-0.04253
-0.00505,-0.01599,-0.05695
0.00272,-0.02769,-0.04528
-0.00391,-0.03885,-0.03524
0.01112,-0.03907,-0.02450
0.00895,-0.05644,-0.01980
0.00669,-0.03891,-0.02289
-0.00819,-0.03865,-0.02836
-0.00375,-0.03348,-0.04203
-0.00560,0.01680,-0.03176
0.00447,0.01587,-0.04831
0.00486,-0.01520,-0.01442
0.01822,0.00115,-0.03713
-0.00076,-0.02992,-0.01874
-0.01191,-0.02775,-0.04684
0.00482,-0.02735,-0.02327
-0.03237,-0.04997,-0.02458
-0.02971,-0.02940,-0.02023
-0.01157,-0.04810,-0.03826
-0.00370,-0.00916,-0.01002
-0.00821,-0.01243,-0.02136
-0.02727,-0.01546,-0.03403
-0.00637,-0.00061,-0.01669
-0.00982,-0.00113,-0.03217
-0.01616,-0.03899,-0.02767
-0.00397,-0.05451,-0.04540
0.00669,-0.04860,-0.03873
-0.01333,-0.03843,-0.00957
-0.01409,-0.03319,-0.02681
-0.00762,-0.00112,-0.02854
-0.04375,-0.01275,-0.04046
-0.02323,0.00296,-0.00209
-0.00096,0.01871,-0.04425
-0.01458,-0.00779,-0.05258
-0.02790,-0.01869,-0.03374
-0.02934,-0.01367,-0.05744
-0.03678,-0.05905,-0.01690
-0.01862,-0.02761,-0.03291
-0.03290,-0.01263,-0.02798
-0.03657,-0.00205,-0.06084
-0.03247,0.00731,-0.04309
-0.00901,-0.01422,-0.06448
-0.04026,-0.00066,-0.02088
-0.01959,-0.04807,-0.02931
-0.03525,-0.05953,-0.02601
-0.01540,-0.02796,-0.03969
-0.05161,-0.03318,-0.03050
-0.01870,-0.02556,-0.05528
-0.02147,0.00747,-0.03373
-0.07550,-0.01247,-0.03002
-0.06687,0.00568,-0.01180
-0.06808,-0.02637,-0.00664
-0.06178,-0.02608,0.00319
-0.08392,-0.03590,-0.03110
-0.08643,-0.01164,-0.00933
-0.10892,-0.06497,-0.03152
-0.09363,-0.06130,-0.08999
-0.07568,-0.00968,-0.11979
-0.00187,-0.04765,-0.09585
-0.05597,0.03334,-0.06028
-0.06103,-0.00102,0.04163
-0.27992,-0.16523,0.28954
-0.16742,0.10791,0.17854
-0.30550,-0.02873,0.15198
-0.28240,-0.04732,0.07337
-0.30856,-0.06220,0.06448
-0.21191,-0.00050,0.05124
-0.16365,0.04178,0.11322
-0.16773,0.02034,0.08553
-0.17621,-0.05450,0.08687
-0.18839,-0.03881,0.07449
-0.13927,-0.00364,0.09886
-0.13318,-0.02861,0.05481
-0.15062,-0.04354,0.07738
-0.10407,-0.05065,0.02483
-0.09043,-0.01238,0.03011
-0.06171,-0.01164,0.00917
-0.00142,-0.01792,0.00663
0.00611,-0.01987,-0.02506
0.02455,-0.03364,-0.04275
0.03022,-0.01880,-0.03543
0.05576,-0.04058,-0.07840
0.04488,-0.02779,-0.07455
0.05164,-0.06299,-0.06434
0.10133,-0.06239,-0.09217
0.12741,-0.03729,-0.13301
0.12948,-0.02902,-0.14108
0.08885,-0.04875,-0.12847
0.10328,-0.04924,-0.12000
0.09755,-0.03363,-0.11274
0.05457,-0.03982,-0.06738
0.07462,-0.07537,-0.10068
0.07026,-0.03590,-0.08402
0.03487,-0.02086,-0.06814
0.06811,-0.02365,-0.07877
0.04141,-0.05589,-0.05419
0.01367,-0.03884,-0.04314
0.04981,0.00567,-0.04563
0.05281,-0.02073,-0.04022
0.05504,-0.01262,-0.05195
0.04424,-0.01915,-0.01680
0.06803,-0.00696,-0.03913
0.10465,0.00586,-0.03155
0.07190,-0.06667,-0.05529
0.12535,0.00022,-0.06614
0.12920,-0.02425,-0.08631
0.15908,-0.02321,-0.09598
0.13361,-0.01898,-0.10441
0.16943,-0.04721,-0.11106
0.13725,-0.00197,-0.12557
0.18283,-0.05100,-0.13519
0.18358,-0.06213,-0.13658
0.19278,-0.05880,-0.13682
0.22147,-0.02490,-0.16064
0.21485,-0.01568,-0.16374
0.21911,-0.03266,-0.17822
0.21738,-0.03731,-0.18170
0.22838,-0.04537,-0.19727
-0.01793,-0.11166,-0.00834
-0.02678,-0.00642,-0.01820
0.07151,-0.06768,-0.06692
0.10138,-0.03785,-0.04244
0.10836,-0.03163,-0.04111
0.12475,-0.03684,-0.02143
0.11190,-0.03062,-0.02452
0.11632,-0.00449,-0.06486
0.12367,-0.05120,-0.08472
0.13464,-0.01867,-0.10495
0.17367,-0.00938,-0.12259
0.18362,-0.04643,-0.11271
0.17235,-0.02554,-0.14263
0.18867,-0.03569,-0.09837
0.16794,-0.02671,-0.12147
0.13391,-0.03569,-0.12360
0.16649,-0.05161,-0.13335
0.12434,-0.01405,-0.09476
0.11443,-0.05789,-0.13071
0.09528,0.02366,-0.08707
0.11024,-0.02809,-0.12950
0.06673,0.00842,-0.12121
0.08862,-0.00784,-0.12255
0.04337,-0.03302,-0.08269
0.05157,-0.03240,-0.06747
0.02018,-0.01616,-0.04598
0.03809,-0.09148,-0.05632
-0.00399,-0.04363,-0.04261
-0.00948,0.02054,-0.01923
0.02488,-0.02715,-0.05719
-0.01343,-0.05875,-0.02161
0.00877,0.01325,-0.06887
0.03310,-0.03809,-0.05625
0.00905,-0.02782,-0.02547
-0.01192,0.00362,-0.05889
-0.04325,-0.03689,-0.00296
-0.04282,-0.07499,-0.00557
-0.07824,0.02850,-0.00919
-0.07005,0.00552,-0.00744
-0.07898,-0.05978,0.00475
-0.06431,-0.00595,0.00277
-0.06455,-0.01490,0.01369
-0.04787,-0.04010,0.00597
-0.06713,-0.00316,0.00011
-0.03619,-0.03291,-0.02865
-0.07213,-0.00965,0.02123
-0.03088,-0.05886,-0.03192
-0.08450,-0.05128,-0.00845
-0.07706,-0.02451,0.00648
-0.10761,-0.02369,-0.00436
-0.10646,-0.01479,-0.00580
-0.10642,-0.05301,-0.00456
-0.12839,0.00069,0.02688
-0.13023,-0.02308,0.03619
-0.12871,-0.05848,0.05800
-0.18187,-0.08912,0.07552
-0.17952,-0.01502,0.06730
-0.22255,-0.01227,0.09057
-0.18113,-0.06747,0.09929
-0.24975,-0.01912,0.13160
-0.20750,-0.00955,0.06565
-0.22792,-0.05964,0.05780
-0.19876,-0.03950,0.06604
-0.19861,-0.05617,0.08143
-0.20087,-0.08831,0.08414
-0.21155,-0.04659,0.09775
-0.19666,-0.04501,0.08429
-0.21433,-0.06526,0.05887
-0.16178,-0.03931,0.06535
-0.20443,-0.01619,0.05228
-0.19310,-0.02941,0.07053
-0.17475,-0.01380,0.05830
-0.17670,-0.05070,0.07884
-0.18635,-0.03317,0.03607
-0.14522,-0.03184,0.05834
-0.17794,-0.03316,0.09147
-0.18953,-0.02036,0.09222
-0.22268,-0.03128,0.06611
-0.19034,-0.04898,0.03877
-0.20729,-0.04733,0.04756
-0.16891,-0.02614,0.06473
-0.15174,-0.01591,0.00854
-0.18610,-0.03728,0.01522
-0.16509,-0.04212,0.04113
-0.15819,-0.01943,0.00590
-0.11825,-0.02173,0.05075
-0.16668,-0.02762,0.05174
-0.18907,0.00064,0.06624
-0.20040,0.00646,0.12246
-0.21247,-0.05256,0.13413
-0.02084,-0.00478,-0.03835
-0.02304,-0.01969,-0.05375
-0.06077,0.01653,-0.02259
-0.09309,-0.02109,-0.00477
-0.05063,-0.05531,-0.05227
-0.09122,-0.00639,-0.08171
-0.06105,0.01263,-0.07288
-0.04841,-0.02251,-0.05922
-0.04794,-0.01663,-0.01060
-0.06473,0.01599,-0.03478
-0.12469,-0.00860,0.00632
-0.11769,0.00590,0.00560
-0.11118,-0.02197,0.03296
-0.16197,0.01188,0.02600
-0.12704,-0.01765,0.01568
-0.15190,0.02204,0.10236
-0.12147,-0.01175,0.11451
-0.17500,-0.00494,0.13621
-0.17369,-0.00559,0.11834
-0.17334,-0.00147,0.08073
-0.14157,0.00125,0.07215
-0.13736,-0.01517,0.03602
-0.10251,-0.00816,0.00580
-0.07241,-0.02396,-0.01475
-0.05268,-0.00064,-0.03931
-0.02113,-0.00263,-0.01989
-0.00444,0.00225,-0.05623
-0.04776,-0.01195,-0.04359
-0.05052,-0.02948,-0.00741
-0.05238,0.00708,-0.00205
-0.01647,-0.01925,0.02142
-0.03182,-0.00842,0.05817
-0.01222,-0.06027,0.02958
0.00179,0.00515,0.01251
0.01748,-0.03062,-0.00652
0.05257,-0.02821,-0.03302
0.07610,0.02195,-0.03236
0.08372,-0.03838,-0.03344
0.06728,-0.06669,-0.04778
0.09507,-0.02582,-0.08646
0.06963,-0.07764,-0.03173
0.03938,0.02373,-0.08719
0.05360,-0.03015,-0.02449
0.05683,0.03283,-0.09302
0.04781,-0.02507,-0.05078
0.05409,-0.00826,-0.05350
0.05175,-0.02896,-0.05863
0.05395,-0.03816,-0.05950
0.08620,-0.05151,-0.05410
0.13091,0.06373,-0.05077
0.06695,-0.01704,-0.02859
0.07107,-0.00017,-0.03362
0.14580,0.00477,-0.01205
0.01354,-0.06201,0.01883
0.04462,-0.05292,0.00480
0.01327,-0.10886,0.02847
0.13331,0.20324,-0.00464
0.06215,-0.12151,0.08127
0.07870,0.05430,-0.00249
0.13667,0.00998,0.00028
0.16367,-0.01453,-0.03670
0.16985,-0.07588,-0.05182
0.20302,-0.05483,-0.06531
0.19252,-0.07191,-0.08120
0.23988,-0.07800,-0.12782
0.24257,-0.06983,-0.14793
0.27840,-0.05987,-0.17438
0.28334,-0.01219,-0.16014
0.30494,-0.05562,-0.18273
0.27804,-0.05963,-0.18211
0.30180,-0.03951,-0.20717
0.29110,-0.08907,-0.20304
0.29206,-0.06775,-0.16779
0.29391,-0.05439,-0.17452
0.25104,-0.06825,-0.13298
0.23251,-0.01934,-0.13224
0.20794,-0.05048,-0.09493
0.22002,-0.02663,-0.09085
0.19586,-0.05126,-0.10543
0.21016,-0.03957,-0.11301
0.19967,-0.04144,-0.12546
0.21581,-0.00715,-0.13973
0.19970,-0.04580,-0.11376
0.23059,0.00220,-0.14453
0.22938,-0.01511,-0.14766
0.22387,-0.06371,-0.16295
0.21688,-0.02998,-0.17050
0.21366,-0.05104,-0.12124
0.19633,-0.02062,-0.13983
0.18902,0.01466,-0.14604
0.20007,-0.03290,-0.06056
-0.07431,0.00866,0.01697
-0.00221,-0.06559,-0.01951
0.00915,-0.01892,-0.03291
0.01161,-0.03310,-0.00086
0.02680,0.01909,-0.05091
0.07358,-0.02443,-0.05865
0.09349,-0.02679,-0.05958
0.10946,-0.02323,-0.06148
0.10419,-0.01135,-0.08441
0.09510,-0.02567,-0.07215
0.08920,-0.03133,-0.07632
0.06996,0.00685,-0.03675
0.08162,-0.00724,-0.04202
0.07652,0.01017,-0.06783
0.05641,-0.01359,-0.05795
0.06234,-0.00725,-0.04546
0.02359,-0.03485,-0.05806
0.05782,-0.03627,-0.03635
0.06233,-0.01538,-0.04107
0.06005,-0.02113,-0.03659
0.05611,-0.03580,-0.05567
0.05295,-0.00349,-0.05535
0.03093,-0.01021,-0.06917
0.04287,0.02558,-0.06453
0.04442,-0.02696,-0.06819
-0.00044,0.02367,-0.05660
0.02220,-0.03668,-0.09244
0.01031,0.00681,-0.02201
0.00798,0.01264,-0.08521
0.04477,-0.03219,-0.08491
-0.01846,-0.02968,-0.08070
0.01526,-0.01887,-0.09097
0.04387,-0.03474,-0.07514
0.03082,-0.03239,-0.09157
0.02016,-0.03292,-0.08450
0.03660,-0.02603,-0.05378
0.01078,-0.03630,-0.06419
-0.02108,0.03204,-0.02652
-0.01324,-0.00543,-0.06305
0.00559,-0.03060,-0.05764
-0.04959,0.03915,-0.03238
0.00525,-0.03659,-0.02151
-0.02335,-0.02660,-0.03432
-0.05715,-0.00551,0.00254
-0.03967,-0.00134,-0.00659
-0.04657,-0.03402,-0.01855
-0.04615,-0.01362,0.01588
-0.13681,0.03845,0.09145
-0.08901,0.00381,0.04853
-0.13603,-0.08451,0.03876
-0.08947,-0.07542,0.03439
-0.13993,-0.00836,0.04871
-0.13665,-0.00488,-0.00015
-0.17014,-0.00702,0.04512
-0.14368,-0.03444,0.03537
-0.18501,-0.04831,0.06155
-0.15120,-0.01075,0.04069
-0.15411,-0.02229,0.02959
-0.18698,-0.03809,0.03602
-0.14259,-0.04135,0.04195
-0.16314,-0.02703,0.05279
-0.18308,-0.01276,0.02780
-0.16273,-0.03757,0.05457
-0.18812,0.01460,0.07027
-0.17088,-0.05477,0.04381
-0.21734,0.00882,0.06992
-0.19961,-0.10759,0.08631
-0.22836,0.02929,0.07321
-0.26318,-0.02067,0.09509
-0.23131,-0.05014,0.11398
-0.23991,-0.00907,0.10447
-0.25276,-0.03624,0.12508
-0.23120,-0.07259,0.10873
-0.26110,-0.02978,0.10375
-0.29302,0.01128,0.09589
-0.22378,-0.02233,0.09389
-0.23245,-0.06720,0.09804
-0.22934,-0.02254,0.06813
-0.24245,-0.02648,0.06432
-0.21716,-0.00682,0.04454
-0.19602,-0.00339,0.06267
-0.20361,-0.02034,0.03791
-0.16021,-0.03070,0.01135
0.02406,-0.09388,-0.06540
0.01838,0.02225,-0.02812
0.00330,0.00872,-0.01999
-0.01372,-0.05587,-0.04224
0.00100,-0.05387,-0.05077
-0.04023,0.01117,-0.02393
-0.03456,-0.01028,-0.04671
-0.00902,-0.04894,-0.02999
-0.00917,-0.00176,-0.03219
0.04100,-0.00623,-0.06274
0.02701,-0.00639,-0.02471
-0.01376,-0.03147,-0.06339
0.03400,-0.02348,-0.07140
0.03129,-0.02549,-0.05820
0.05059,0.00165,-0.07585
0.05289,-0.03561,-0.11414
0.00981,-0.03030,-0.08262
0.04154,-0.04449,-0.07721
0.04865,-0.01788,-0.06327
0.07573,0.00283,-0.07181
0.08765,-0.05292,-0.04423
0.06686,-0.00913,-0.03359
0.08218,-0.00265,-0.05223
0.06272,-0.05876,-0.03378
0.09020,-0.02948,-0.04250
0.06852,-0.01361,-0.00441
0.07939,-0.02350,-0.00354
0.08232,-0.03139,-0.03892
0.08496,-0.00791,-0.03606
0.04629,-0.02063,-0.01931
0.09080,-0.03419,-0.01828
0.09207,-0.00775,-0.01807
0.10321,-0.02436,-0.03133
0.08237,0.00301,-0.06232
0.03628,-0.05153,-0.07629
0.04167,-0.03072,-0.06168
0.04693,-0.03436,-0.06455
0.07785,-0.02032,-0.06861
0.08838,0.00185,-0.07407
0.09790,-0.03084,-0.05618
0.07042,-0.01525,-0.04281
0.04628,-0.02028,-0.08276
0.03894,-0.05267,-0.09915
0.02436,-0.02955,-0.08308
0.03294,-0.02826,-0.09801
0.01623,-0.02712,-0.11508
0.02049,-0.05006,-0.09056
0.01171,-0.01175,-0.11480
0.01326,-0.03618,-0.12939
0.01268,0.01320,-0.08377
0.00386,-0.02809,-0.10620
-0.00794,-0.05120,-0.12644
0.00585,-0.02690,-0.14337
-0.00746,-0.01014,-0.13457
0.01059,-0.00326,-0.13387
0.00016,-0.04629,-0.13485
0.00601,-0.01474,-0.14325
0.01054,-0.03911,-0.15222
0.00744,-0.01538,-0.16213
0.00587,-0.00341,-0.16649
-0.00226,0.02629,-0.18782
-0.02217,-0.02317,-0.15605
-0.04277,0.00208,-0.18006
-0.05019,-0.01593,-0.13411
-0.04859,-0.05543,-0.17476
0.00007,-0.03778,-0.19934
-0.00384,-0.00667,-0.17017
0.00119,0.00788,-0.15839
0.02257,0.01123,-0.16309
-0.00223,-0.02656,-0.14871
0.03956,-0.00475,-0.15566
0.04461,-0.00128,-0.10943
0.03289,-0.00017,-0.13461
0.06341,-0.02111,-0.12753
0.09764,0.02549,-0.10041
0.06019,-0.05849,-0.09307
0.08133,-0.01628,-0.06791
0.04310,-0.01469,-0.05585
0.05718,-0.04898,-0.08778
0.01805,-0.03550,-0.06814
0.04487,-0.05902,-0.05035
0.05942,-0.01623,-0.01849
0.04053,-0.01995,-0.00107
0.04601,-0.02357,-0.00684
0.04071,0.01545,0.02498
0.03655,-0.05500,-0.01648
0.05905,-0.01027,0.01137
0.06253,-0.05784,0.00364
0.07621,-0.02987,0.02498
0.10558,-0.05369,0.06113
0.11283,0.02509,0.07158
0.10398,0.01425,0.04546
0.12021,-0.08769,0.03434
0.09531,-0.08500,0.03746
0.09286,-0.00215,0.08126
0.10044,-0.03528,0.08005
0.11866,-0.01356,0.05609
0.06774,-0.00833,0.06114
0.13453,0.00243,0.00489
0.04131,-0.04685,0.07293
0.07595,-0.00901,0.06417
0.10297,-0.01142,0.06745
0.05589,-0.05672,0.09528
0.14185,0.02313,0.04248
0.04524,-0.09970,0.10864
0.14075,-0.01159,0.06177
0.14745,0.02944,0.09239
0.11666,-0.00038,0.06121
0.14088,-0.01637,0.08737
0.13164,-0.03565,0.09478
0.11882,-0.01381,0.08841
0.10925,-0.06224,0.10565
0.13081,-0.01005,0.12086
0.09437,-0.02484,0.11319
0.11032,-0.03653,0.13391
0.09032,-0.02068,0.11437
0.11056,-0.05014,0.13292
0.09322,-0.02758,0.14168
0.12108,0.01957,0.11224
0.12760,0.01154,0.13809
0.15651,-0.02487,0.13149
0.14363,-0.06606,0.09820
0.13822,-0.02897,0.11632
0.15112,-0.02774,0.08176
0.16385,-0.02750,0.08417
0.16570,-0.00816,0.10616
0.16138,-0.02526,0.09836
0.12859,0.09741,-0.03582
-0.03269,-0.03627,-0.05777
-0.01741,-0.03683,-0.05605
0.10821,0.03840,0.03411
0.21587,-0.02864,0.07677
0.24550,-0.03055,0.08228
0.24879,0.08756,0.04697
0.17532,-0.08561,0.11396
0.15792,0.03949,0.08969
0.10044,-0.06743,0.05309
0.04869,0.02988,0.08998
0.04484,0.00519,0.11159
0.04047,-0.02518,0.13284
0.06979,-0.01498,0.14937
0.06087,-0.01540,0.13442
0.04854,0.02202,0.12149
0.02189,-0.01859,0.11983
0.05775,0.00168,0.07464
0.04464,-0.03152,0.09581
0.03528,0.00598,0.08232
0.02142,-0.05512,0.08681
0.02160,-0.01735,0.07810
0.00172,-0.04869,0.08716
0.02359,-0.03650,0.08837
0.02337,0.01751,0.06608
0.00255,0.00249,0.06092
0.01449,-0.01401,0.07069
0.03608,0.09104,0.09236
0.05937,-0.06205,0.02347
0.13429,0.05901,-0.00973
0.09640,-0.05263,0.05665
0.06890,0.08316,-0.03280
0.08952,-0.13956,0.00700
0.13907,0.16276,-0.07015
0.10353,-0.01776,0.01645
0.08576,-0.11975,0.06173
0.08538,0.02275,-0.02152
0.01590,-0.01462,0.02771
-0.00229,-0.05529,0.03572
-0.01233,-0.06613,0.01517
-0.02172,-0.00689,0.02093
-0.04632,-0.02027,0.04035
-0.05193,0.00870,0.00521
-0.00261,-0.13066,0.04768
-0.06214,0.07052,0.04071
-0.05124,-0.09312,0.05099
-0.08040,0.00085,0.02427
-0.06288,-0.03230,0.01210
-0.05351,0.07959,-0.08679
-0.03979,0.03887,-0.05280
-0.05750,0.01653,-0.06710
-0.00602,-0.05245,-0.06315
-0.00782,-0.01488,-0.07062
-0.02786,-0.06601,-0.07651
-0.03138,-0.06463,-0.06025
-0.05909,0.01018,-0.13517
-0.00783,-0.03135,-0.12320
-0.05724,0.02866,-0.19224
-0.06291,0.00839,-0.12119
-0.07476,0.00110,-0.09993
-0.07725,0.00132,-0.09667
-0.16531,-0.09514,-0.02384
-0.11315,-0.08015,-0.10830
-0.19616,-0.02198,-0.05875
-0.11509,-0.01313,-0.15962
-0.14377,0.01921,-0.08016
-0.11291,-0.00302,-0.11359
-0.14498,0.05166,-0.12052
-0.11865,0.00454,-0.16663
-0.13755,0.04790,-0.13449
-0.10052,-0.04756,-0.12941
-0.06360,-0.01111,-0.16564
-0.06731,-0.01536,-0.22901
-0.04860,-0.04940,-0.18050
-0.05431,-0.01603,-0.21762
-0.04886,-0.03342,-0.22656
-0.03609,-0.05038,-0.23025
-0.10086,0.00060,-0.20586
-0.09055,-0.06782,-0.18261
-0.08826,-0.04733,-0.19869
-0.05145,0.00804,-0.20997
-0.09505,0.03355,-0.22942
-0.10153,-0.05828,-0.20389
-0.14215,-0.01397,-0.20595
-0.11008,-0.02123,-0.18747
-0.07305,-0.01744,-0.17742
-0.09227,-0.06669,-0.18627
-0.14628,-0.01411,-0.13482
-0.10644,-0.04194,-0.20332
-0.12055,-0.03751,-0.18437
-0.11565,-0.01913,-0.17995
-0.12199,-0.02356,-0.14546
-0.12227,-0.00843,-0.15270
-0.11887,-0.03456,-0.18761
-0.13764,-0.02712,-0.16581
-0.10848,-0.02441,-0.17240
-0.10548,-0.03838,-0.14939
-0.10265,0.00256,-0.18250
-0.11573,-0.02552,-0.18055
-0.13044,-0.00701,-0.16767
-0.12234,-0.02412,-0.17741
-0.17268,-0.04137,-0.18396
-0.13200,-0.01882,-0.17211
-0.13264,-0.03553,-0.16475
-0.14414,-0.00530,-0.16840
-0.16989,-0.02072,-0.14681
-0.01185,-0.13933,-0.02434
0.02052,0.11386,0.00393
-0.03423,0.00337,-0.04820
-0.16110,-0.01942,-0.12748
-0.22281,-0.02022,-0.16059
-0.28120,0.01761,-0.25615
-0.29708,0.05167,-0.28149
-0.24353,-0.04786,-0.26140
-0.14605,-0.07399,-0.22184
-0.10937,-0.05226,-0.20936
-0.01440,0.05424,-0.17955
0.03327,0.13997,-0.10343
-0.07779,0.05921,-0.18436
-0.16012,-0.07344,-0.20282
-0.14126,-0.02860,-0.22459
-0.13834,-0.04043,-0.26848
-0.12865,-0.02998,-0.21651
-0.04885,-0.00522,-0.19616
-0.01115,0.07884,-0.17478
0.01197,0.05407,-0.19605
-0.05291,-0.04956,-0.16257
0.02656,-0.10858,-0.25964
0.03676,-0.04352,-0.20065
0.01193,0.02418,-0.14896
0.05493,0.04779,-0.17143
-0.01896,0.04828,-0.09771
-0.02395,-0.02659,-0.11760
-0.08934,-0.01678,-0.07242
-0.05359,-0.01266,-0.09737
-0.05638,-0.04038,-0.06620
-0.06368,-0.02655,-0.03472
-0.07116,0.05296,-0.02127
-0.07234,-0.05327,-0.01380
-0.06546,-0.04462,-0.01984
-0.04413,0.01050,0.01496
-0.05103,-0.03031,0.01877
-0.03537,0.04207,-0.03468
0.02918,-0.02534,-0.03614
0.02825,0.06798,-0.01815
0.07458,-0.01589,-0.01362
0.08291,-0.03551,0.00751
0.07988,0.01965,0.02610
0.05057,0.02180,0.03379
0.06331,0.05026,0.08095
0.05404,0.03577,-0.00753
0.00776,-0.01875,0.08577
0.05395,0.00532,0.05819
0.01605,-0.04930,0.09131
0.06468,0.01248,0.07004
0.02811,-0.04239,0.10533
0.01758,-0.04138,0.10443
0.05014,-0.00668,0.11616
0.07162,0.01507,0.16348
0.02727,-0.10691,0.15103
0.02636,-0.02736,0.21037
0.01332,-0.07522,0.19680
0.05434,0.09125,0.21083
0.05023,-0.09404,0.21613
0.13194,0.08659,0.22909
0.06438,-0.13778,0.18611
0.08621,-0.02172,0.13773
0.16104,-0.05423,0.14920
0.17860,-0.03936,0.13300
0.22723,0.01859,0.13660
0.21996,-0.11463,0.09623
0.29234,0.00866,0.11840
0.26487,-0.16210,0.10707
0.31514,0.04909,0.09806
0.17295,-0.05098,0.10007
0.23707,-0.04526,0.11371
0.19588,-0.05334,0.12459
0.15789,-0.02006,0.22440
0.22678,-0.04397,0.11382
0.10150,-0.07906,0.20005
0.13308,-0.05555,0.16612
0.05929,-0.07216,0.19096
0.07722,0.02403,0.19875
0.06289,-0.07330,0.23811
0.04885,-0.02150,0.22938
0.07174,0.02789,0.24305
0.05083,-0.01732,0.23648
0.06024,-0.04846,0.22818
0.07200,-0.03194,0.24485
0.07419,0.00634,0.24545
0.10504,0.04333,0.23751
0.09826,-0.02114,0.19246
0.12937,0.00796,0.20387
0.14000,-0.00126,0.19366
0.13291,-0.02147,0.16498
0.15672,-0.01718,0.11913
0.17302,-0.03465,0.10526
0.19449,-0.00010,0.09376
0.20710,0.04422,0.10105
0.24075,-0.00419,0.02267
-0.06507,-0.02684,-0.02681
-0.04696,-0.05831,-0.06059
0.01269,-0.03895,-0.02581
0.18250,0.04106,0.08456
0.18564,-0.02244,0.08147
0.21900,-0.09347,0.10927
0.13079,-0.09995,0.10940
0.12933,0.03168,0.14849
0.05620,-0.01031,0.13104
0.01534,-0.01676,0.12042
-0.02109,0.00515,0.09879
-0.01402,0.00078,0.11180
0.02262,0.00549,0.12206
0.01653,-0.02540,0.13543
0.02502,-0.01705,0.11987
0.07106,-0.02474,0.07653
0.03452,0.03018,0.07570
0.02779,-0.00620,0.06001
0.04269,0.02388,0.02677
0.08036,0.00533,-0.00041
0.10359,-0.01082,0.00531
0.07311,-0.03285,-0.00326
0.07089,0.01043,0.02008
0.08516,0.03258,-0.00194
0.10598,-0.04348,-0.00847
0.03403,-0.00310,0.00997
0.01871,-0.03439,-0.00608
0.03488,-0.01656,0.05350
0.03043,-0.06924,0.05866
-0.01132,0.00944,0.06855
0.00845,-0.03315,0.04212
-0.05406,-0.01917,0.09747
-0.06178,-0.00768,0.06526
-0.06464,-0.05069,0.04700
0.01179,0.01960,0.03389
-0.03608,-0.04049,0.11092
-0.04392,0.01704,0.03473
-0.05789,-0.14200,0.04258
-0.07319,0.09936,-0.01595
-0.05031,-0.12584,0.02149
-0.07976,0.02111,0.00170
-0.00964,-0.06130,0.02829
-0.04977,-0.04009,-0.04057
-0.08724,0.14150,-0.03061
-0.03004,-0.03420,-0.05208
0.00480,0.01528,-0.07922
-0.00745,-0.01731,-0.07456
0.02522,-0.05449,-0.08263
-0.03842,0.05476,-0.13865
-0.03191,-0.05984,-0.10694
0.01013,0.01392,-0.16452
0.00573,-0.05451,-0.13763
-0.01358,0.00301,-0.17457
-0.03901,-0.02829,-0.14714
-0.11157,-0.03762,-0.10614
-0.16580,-0.00612,-0.11658
-0.21720,-0.01308,-0.06482
-0.22037,-0.08357,-0.06597
-0.24974,-0.03570,-0.05498
-0.28820,-0.01340,-0.08985
-0.26548,-0.04788,-0.11605
-0.23183,-0.04843,-0.16096
-0.23926,-0.00703,-0.15805
-0.22002,-0.07677,-0.17887
-0.16114,-0.03376,-0.26451
-0.20903,-0.02901,-0.27540
-0.19225,-0.08590,-0.29119
-0.16919,-0.03706,-0.32043
-0.14093,-0.04297,-0.33507
-0.16504,-0.05124,-0.38115
-0.15687,-0.04308,-0.34960
-0.12100,-0.05693,-0.40293
-0.12581,-0.03009,-0.40001
-0.12118,-0.07420,-0.42017
-0.12689,-0.04103,-0.40923
-0.19267,-0.03540,-0.41448
-0.19616,-0.06229,-0.37898
-0.20688,-0.04455,-0.32593
-0.20684,-0.05854,-0.24478
-0.24666,-0.03572,-0.21315
-0.32044,-0.02937,-0.14733
-0.32921,-0.04047,-0.08354
-0.19549,-0.10946,0.07836
-0.02015,0.02024,-0.00884
0.02418,0.06575,-0.03089
-0.12344,-0.05411,-0.10720
-0.23028,-0.06147,-0.10346
-0.23966,-0.04587,-0.15128
-0.17542,-0.03466,-0.14417
-0.11842,0.00856,-0.19472
-0.04521,0.00005,-0.18756
0.01978,-0.00695,-0.14229
0.09144,0.01431,-0.09869
0.08893,-0.00864,-0.08546
0.05921,-0.04232,-0.08953
0.01008,-0.03673,-0.09436
0.01331,-0.02431,-0.05029
0.02784,-0.01038,-0.05689
0.04741,-0.03439,-0.01114
0.03908,-0.02489,0.01171
0.02932,-0.02406,0.04908
0.05691,-0.01984,0.06818
0.02658,-0.03871,0.02996
0.03029,-0.02419,0.06523
0.03795,-0.03351,0.09317
0.07253,-0.02707,0.08601
0.06637,0.00264,0.06818
0.09022,-0.01663,0.05275
0.07266,-0.02131,0.03710
0.07416,-0.04202,0.04662
0.06859,-0.03579,0.04794
0.08469,-0.03686,0.02420
0.05724,-0.02903,0.01869
0.06390,-0.01788,0.04356
0.04928,0.01258,0.03388
0.02551,-0.04149,0.02957
0.03450,-0.01275,0.02922
0.01024,-0.05510,0.03927
0.03504,-0.00990,0.03997
0.01707,-0.00275,0.04874
0.05278,-0.04666,0.07607
0.04339,-0.04018,0.09298
0.08089,-0.05751,0.07154
0.08085,-0.01634,0.06664
0.11118,-0.03017,0.03921
0.08368,-0.02807,0.02858
0.09054,-0.01957,-0.01063
0.09242,-0.01669,-0.02970
0.06668,0.00295,-0.07212
0.06295,-0.02034,-0.06468
0.06769,0.05273,-0.07158
0.10095,0.08548,-0.05693
0.10105,0.10307,-0.08782
0.10094,0.10887,-0.09120
0.07840,0.20451,-0.04844
-0.01551,0.27941,-0.01367
-0.19756,0.36818,0.18732
-0.15555,0.22658,0.08913
-0.13506,0.16303,0.08754
-0.05021,0.36768,0.05467
-0.03844,0.44029,0.13121
-0.03297,0.34870,0.10178
0.02511,0.40870,0.05485
0.04273,0.37214,0.01139
0.05356,0.35397,-0.03385
0.04273,0.30522,-0.05391
0.02968,0.35596,-0.01182
0.00512,0.43412,0.01482
-0.01314,0.46164,0.04197
-0.00003,0.50134,0.05745
-0.03276,0.49876,0.02624
0.00064,0.49541,0.05126
-0.03123,0.53013,0.06119
0.01004,0.49695,0.07299
-0.00032,0.50229,0.03031
0.00499,0.47655,0.08239
0.02581,0.44344,0.05894
0.00761,0.43276,0.07526
0.01854,0.35372,0.04945
0.02764,0.35284,0.05655
0.00847,0.31275,0.07631
0.01223,0.28087,0.12039
0.00625,0.26262,0.09554
0.00412,0.21045,0.09130
-0.00409,0.20264,0.09897
0.01458,0.20408,0.09806
0.04010,0.19271,0.09789
0.03665,0.12961,0.08044
0.04679,0.12313,0.13107
0.04280,0.10592,0.08831
0.06151,0.07956,0.04391
0.02767,0.08111,0.06583
0.07114,0.08461,0.05483
0.08092,0.05656,0.06279
0.07700,0.07026,0.05044
0.06156,0.06364,0.07988
0.06124,0.10066,0.07223
0.04119,0.12092,0.05370
0.06070,0.14117,0.08758
0.06780,0.12224,0.11348
0.06762,0.07671,0.06424
0.08089,0.01192,0.05676
0.08539,0.00584,0.02074
0.10201,-0.04814,-0.00716
0.10624,-0.10546,-0.01122
0.10853,-0.16848,-0.01487
0.08779,-0.24697,-0.04872
0.11673,-0.31371,-0.02832
0.11647,-0.37035,-0.04077
0.12047,-0.40456,-0.02538
0.11833,-0.45507,-0.03004
0.10049,-0.52493,-0.07399
0.08751,-0.59642,-0.09769
0.10966,-0.58656,-0.10761
0.08042,-0.66082,-0.09912
0.07350,-0.66154,-0.11140
0.07835,-0.65988,-0.10627
0.03285,-0.67743,-0.11646
0.04619,-0.69330,-0.11321
0.05372,-0.69510,-0.12464
0.06089,-0.67286,-0.12444
0.06802,-0.67796,-0.12967
0.05444,-0.63797,-0.11399
0.06199,-0.58889,-0.09200
0.04422,-0.56239,-0.09404
0.05141,-0.50721,-0.05366
0.04749,-0.48476,-0.04396
0.04235,-0.51702,-0.02311
0.02461,-0.48722,-0.01032
0.02057,-0.50080,-0.03444
-0.00511,-0.50445,-0.08517
-0.01674,-0.50116,-0.03941
-0.00122,-0.53631,-0.04467
-0.01161,-0.52080,-0.03533
-0.02280,-0.48960,-0.03976
-0.01233,-0.50510,-0.03841
-0.00898,-0.51871,-0.01523
0.00481,-0.50147,-0.02314
0.00643,-0.50218,-0.01342
0.01145,-0.48830,-0.02685
0.01511,-0.49536,-0.04354
0.00285,-0.53178,-0.03251
-0.01693,-0.53819,-0.03533
-0.01380,-0.56082,-0.03442
-0.03226,-0.56246,-0.00963
-0.01440,-0.53323,-0.05222
0.01506,-0.54234,-0.04391
0.00891,-0.52281,-0.03640
0.04002,-0.51547,-0.07112
0.04462,-0.48685,-0.06160
-0.01227,-0.48115,-0.04422
0.01288,-0.45704,-0.07268
-0.00730,-0.36694,-0.07495
0.04001,-0.36716,-0.09804
0.05087,-0.29891,-0.06540
0.08108,-0.25618,-0.05331
0.09943,-0.23088,-0.05834
0.06567,-0.21723,-0.04083
0.06070,-0.21997,-0.02272
0.03204,-0.22548,-0.01842
0.00223,-0.20308,-0.03634
-0.01122,-0.15274,-0.02149
-0.02210,-0.16873,-0.03414
0.00260,-0.14595,-0.00989
0.01151,-0.10394,-0.00441
0.03825,-0.11855,-0.04657
0.04322,-0.14122,-0.04885
0.06881,-0.09863,-0.07779
0.05672,-0.04932,-0.05457
0.09176,-0.02207,-0.02226
0.06997,0.04694,0.00134
0.04282,0.01887,0.00057
0.02134,0.02452,0.03230
0.01710,0.03406,0.01246
0.03752,0.05272,0.04075
-0.00777,0.03630,0.04564
0.00866,0.02119,0.03126
0.03085,0.08532,0.02296
-0.00337,0.11903,0.07188
-0.03967,0.08820,0.09373
-0.06363,0.05926,0.06733
-0.02107,0.08747,0.06220
0.01707,0.11976,0.04940
0.06096,0.15159,0.02942
0.03631,0.16668,0.02081
0.06515,0.18909,0.00144
0.07927,0.23421,-0.00693
0.06771,0.23830,-0.00352
0.04809,0.26733,-0.02370
0.03751,0.28846,0.01185
0.03651,0.28488,0.03986
0.00202,0.25880,0.06262
-0.00030,0.27029,0.06951
-0.04440,0.21567,0.07608
-0.02124,0.23909,0.07255
-0.03513,0.26355,0.07103
-0.01003,0.24890,0.04989
0.02514,0.23334,0.03984
0.01764,0.22851,-0.00183
0.03082,0.18599,-0.01072
0.03646,0.15034,-0.02824
0.05265,0.19870,-0.02215
0.02750,0.15604,-0.00070
0.03458,0.16364,0.02186
0.02050,0.12450,-0.02500
0.01762,0.14119,0.01812
0.00682,0.10724,-0.00954
0.00937,0.10050,0.01496
0.02757,0.09989,-0.01448
0.03285,0.07263,0.00356
0.00720,0.09205,-0.00474
0.01731,0.08324,-0.03693
0.03807,0.11674,-0.02161
0.03739,0.15801,-0.03061
0.04583,0.11009,-0.01244
0.01703,0.09407,-0.00731
0.01580,0.11176,-0.01027
-0.02383,0.12552,0.00317
-0.02849,0.13160,0.00172
-0.02557,0.11379,-0.00218
-0.00470,0.12765,-0.02923
0.03305,0.14309,-0.02885
0.02822,0.19012,-0.02158
0.04997,0.22455,-0.04846
0.06214,0.18287,-0.05232
0.02379,0.22857,-0.03815
-0.01893,0.23590,0.00471
-0.05883,0.26323,0.07809
0.30707,0.66633,-0.07666
-0.09746,0.19018,0.05172
-0.16888,0.22471,0.02827
-0.21929,0.17248,0.06598
-0.08536,0.27015,0.05843
0.03582,0.41821,0.08192
-0.01407,0.20434,0.04175
-0.00023,0.27693,0.03343
-0.01959,0.12265,0.02287
-0.03912,0.12690,-0.00149
0.01087,0.17370,-0.02207
0.02494,0.21097,-0.02058
0.01283,0.13549,-0.02854
0.01344,0.12607,0.01729
0.03439,0.14847,0.00410
-0.01119,0.09523,0.01100
-0.01486,0.12486,0.00711
-0.02538,0.11337,0.02224
-0.01126,0.09203,0.02157
-0.01437,0.06290,0.02056
0.01844,0.04918,0.02561
0.02445,0.01444,-0.00031
0.03149,-0.00331,-0.00992
0.07906,0.01204,-0.04507
0.12204,-0.01476,-0.04395
0.14115,0.03429,-0.07708
0.13908,0.09323,-0.09714
0.09699,0.14547,-0.06585
0.07698,0.17568,-0.02609
0.08684,0.31297,-0.02991
0.03720,0.30812,-0.01929
0.02212,0.33888,0.02026
0.03247,0.38534,0.01441
0.01928,0.39569,0.01436
0.03526,0.39758,0.02405
0.00576,0.40988,0.04132
0.00053,0.41685,0.04414
-0.03020,0.40616,0.06502
-0.04868,0.37383,0.08797
-0.07912,0.39532,0.06951
-0.05998,0.40338,0.09621
-0.07657,0.38506,0.07490
-0.05329,0.36017,0.10497
-0.05976,0.34062,0.08489
-0.04567,0.36588,0.07210
-0.01533,0.34541,0.09199
-0.04638,0.33149,0.06013
-0.01599,0.32789,0.05413
-0.03362,0.31004,0.05205
0.00552,0.27169,0.01197
0.02919,0.23340,0.01510
0.02905,0.23708,0.02473
0.05249,0.23688,0.01685
0.02095,0.17405,0.02042
0.02642,0.16808,0.02959
0.02727,0.09999,0.01341
0.00801,0.09155,-0.00078
0.05476,0.07577,0.01009
0.01752,0.00992,-0.01130
0.05128,0.01358,-0.00658
0.07847,-0.00654,-0.02857
0.06366,-0.01022,-0.03480
0.03247,-0.01114,-0.04139
0.02390,-0.02405,-0.02465
0.02238,-0.00255,-0.01318
-0.02962,0.04029,-0.00321
-0.00932,0.00174,0.01177
-0.02831,0.01133,0.00598
-0.04003,-0.00379,0.01768
-0.03656,-0.00152,0.00831
-0.02317,0.00211,0.00368
-0.02075,0.01475,0.01369
-0.04889,-0.01262,0.01452
-0.04222,-0.01220,-0.02316
-0.01622,-0.01914,-0.00786
-0.00277,-0.04203,-0.00297
0.00680,-0.04129,-0.01787
-0.02229,-0.07463,-0.03874
-0.01944,-0.06271,-0.04443
0.00673,-0.08776,-0.03880
0.00567,-0.11091,-0.04415
-0.00902,-0.12924,-0.00378
-0.02388,-0.17984,-0.02006
-0.00495,-0.22791,-0.01519
-0.01506,-0.26463,-0.03345
-0.04387,-0.28983,-0.02291
-0.04209,-0.33786,-0.03255
-0.01622,-0.34972,-0.04609
-0.02394,-0.36987,-0.00703
-0.00050,-0.40676,-0.05293
-0.02664,-0.47734,-0.02634
0.00694,-0.46831,-0.06331
0.00821,-0.47143,-0.07261
0.01888,-0.48597,-0.07858
0.02087,-0.54614,-0.05507
0.02648,-0.53825,-0.05581
0.03916,-0.56933,-0.09011
0.03344,-0.58555,-0.08094
0.02846,-0.61414,-0.07072
0.01267,-0.60087,-0.09627
0.03097,-0.62102,-0.10929
-0.00789,-0.61615,-0.10559
-0.00462,-0.62287,-0.09782
0.00019,-0.58448,-0.09108
-0.00017,-0.55368,-0.07237
-0.02805,-0.55778,-0.05318
-0.02008,-0.51461,-0.07218
-0.02384,-0.49797,-0.04717
-0.00324,-0.47623,-0.04268
0.02757,-0.46001,-0.01419
0.01184,-0.43160,-0.04214
0.02095,-0.38833,-0.03798
-0.00349,-0.39068,-0.04832
-0.00731,-0.37730,-0.04450
0.00821,-0.31498,-0.05535
0.01056,-0.32206,-0.06521
-0.00623,-0.25890,-0.03629
0.04536,-0.22524,-0.04877
0.03380,-0.23333,-0.00533
0.02577,-0.19260,-0.04582
0.00656,-0.21814,-0.06133
-0.00370,-0.25502,-0.06305
-0.00224,-0.27388,-0.06563
0.00525,-0.27010,-0.06837
0.01733,-0.29204,-0.09150
0.00491,-0.29470,-0.06616
0.00601,-0.33158,-0.06109
-0.01021,-0.31837,-0.06545
-0.00573,-0.35011,-0.04114
-0.02443,-0.37575,-0.05048
-0.02951,-0.34751,-0.04913
-0.04951,-0.36111,-0.03203
-0.03224,-0.38370,-0.05951
-0.01290,-0.33755,-0.06016
-0.03925,-0.32235,-0.05949
-0.04787,-0.31486,-0.05040
-0.04080,-0.27797,-0.04970
-0.05592,-0.23605,-0.03537
-0.06094,-0.21432,-0.04771
-0.06366,-0.15773,-0.01830
-0.05217,-0.12790,-0.02913
-0.02009,-0.12987,-0.02953
-0.03121,-0.07686,-0.03357
-0.01099,-0.11818,-0.02226
-0.04534,-0.07546,-0.01404
-0.01099,-0.07442,-0.02191
-0.01484,-0.05904,-0.02854
-0.02863,-0.07239,0.00427
-0.01412,-0.03966,0.00776
-0.00793,-0.06251,0.00365
-0.00814,-0.06286,-0.00706
-0.00128,-0.06848,0.01831
-0.04237,-0.08491,0.00850
-0.00543,-0.07463,0.00445
-0.01035,-0.05599,-0.00451
-0.02352,-0.05699,-0.00468
-0.02279,-0.05476,0.00454
-0.00246,-0.05917,0.01479
-0.00525,-0.01886,-0.01943
-0.03395,-0.01652,-0.02336
0.03828,0.00898,-0.01444
0.04700,0.04239,-0.00330
0.03631,0.03228,-0.01365
0.05553,0.00831,-0.01758
0.01812,0.03497,-0.00791
0.00416,0.02115,0.02752
-0.01153,-0.01838,0.05505
-0.03275,-0.00204,0.03498
-0.07986,0.01412,0.05179
-0.06895,0.03227,0.06293
-0.06963,0.04706,0.04953
-0.05873,0.09173,0.06680
-0.07301,0.07039,0.03992
-0.05111,0.10187,0.03943
-0.06079,0.13895,0.01331
-0.03646,0.14311,0.02542
-0.00439,0.10261,0.00841
0.01088,0.08274,-0.01330
0.02478,0.03953,-0.03310
0.02796,0.02373,-0.01999
0.03438,-0.03096,0.00531
0.00328,-0.07379,-0.00588
0.00868,-0.07201,0.00074
0.02100,-0.06237,0.01092
-0.00284,-0.08924,0.01995
-0.00281,-0.11015,0.01597
0.02026,-0.04153,-0.00432
0.02472,-0.00083,0.00238
0.04478,0.04929,0.00623
0.05582,0.08035,-0.00733
0.04725,0.10511,-0.02435
0.05389,0.15118,-0.02469
0.05116,0.22477,-0.01100
0.04371,0.18391,-0.00065
0.03164,0.19083,0.00983
-0.00092,0.18520,0.03421
0.00106,0.21426,0.02890
-0.03326,0.17058,0.03858
-0.02569,0.20476,0.05416
-0.04678,0.17438,0.05453
-0.07839,0.20974,0.07837
-0.06707,0.16416,0.06716
-0.04306,0.17919,0.04948
-0.03215,0.15727,0.05702
-0.04776,0.15871,0.03034
-0.01806,0.16744,-0.00723
0.00834,0.16474,-0.00012
0.01332,0.15237,-0.01181
0.02596,0.16288,0.01057
0.01400,0.13749,0.02477
0.00950,0.10252,0.01120
0.02174,0.08369,0.01284
0.00329,0.04127,0.01705
0.01200,0.08456,0.02014
0.00607,0.06743,0.02511
0.00249,0.03533,0.01167
0.01639,0.06037,-0.01578
0.02691,0.04474,-0.00640
0.00878,0.05535,0.01969
0.02733,0.05064,0.00503
0.06319,0.04732,-0.00895
0.02857,0.02099,-0.01468
0.04381,-0.01533,-0.00212
0.03099,-0.07322,-0.02826
0.03187,-0.10856,-0.02116
0.05394,-0.11644,-0.01129
0.07660,-0.13641,-0.02247
0.08399,-0.19650,-0.05378
0.07598,-0.18111,-0.05396
0.12222,-0.20315,-0.05194
0.09409,-0.22996,-0.04977
0.10169,-0.16517,-0.01819
-1.84311,0.77679,0.37124
1.77158,1.15213,-1.94689
0.00430,-2.43019,-0.17583
0.27297,-0.28617,-0.39128
-0.46006,-1.26370,0.01274
-0.24644,-0.24049,0.20801
-0.07133,-0.06559,0.00461
-0.02053,0.12150,0.03313
0.23324,0.20751,0.04123
0.03628,-0.10650,0.00723
-0.00306,-0.23879,-0.05212
0.02216,-0.27909,-0.08038
-0.00947,-0.15895,-0.05915
0.00911,0.17484,-0.00213
0.19802,0.17208,0.04044
-0.03767,-0.09794,-0.02058
0.00454,-0.16028,-0.07472
-0.01916,-0.14661,-0.05826
0.01335,-0.10204,-0.02856
0.12279,0.11924,0.04931
0.00273,-0.10698,-0.00322
0.02166,-0.08511,-0.03276
0.00151,-0.02224,-0.05295
0.09192,0.15968,0.01977
0.01202,-0.00249,-0.03442
0.03159,-0.01257,-0.01449
0.01644,-0.00851,-0.00501
0.04166,-0.08073,-0.00411
0.01957,-0.06141,0.00801
0.05293,-0.06673,0.00237
0.02618,-0.03560,-0.00076
0.03972,-0.00155,-0.01621
-0.00304,0.02157,-0.02916
0.03400,0.03368,-0.03647
0.02738,-0.01616,-0.05217
0.02432,-0.00429,-0.05179
0.02403,-0.05337,-0.00942
0.00413,-0.07896,-0.02901
0.03933,-0.07828,-0.03231
0.02309,-0.05335,-0.01001
0.00227,-0.03163,-0.01258
0.01240,-0.01535,-0.04296
0.01232,-0.00407,-0.06078
0.02943,0.02196,-0.03345
0.02403,0.03431,-0.02027
0.02953,0.00522,0.00569
0.02941,-0.03044,-0.01246
0.01729,-0.03820,0.00381
0.01814,-0.07040,0.00967
0.01098,-0.07687,-0.03041
-0.02794,-0.04799,-0.01169
-0.09863,0.04136,0.01646
0.03148,0.02723,-0.04625
0.04188,0.03213,-0.06611
0.03359,0.01217,-0.05838
-0.00838,-0.03678,0.02626
-0.00404,-0.09307,0.00987
0.01160,-0.01245,-0.02336
0.04255,-0.07545,-0.02156
0.04405,-0.06389,-0.02591
0.03764,0.00094,-0.02596
-0.02658,0.02493,-0.00499
-0.00346,-0.01212,-0.03631
0.06411,0.07889,-0.02865
0.03847,-0.01717,-0.04484
0.01567,0.01679,-0.01775
0.02425,-0.02698,0.00721
0.03365,-0.07482,-0.01219
0.02746,-0.04789,-0.00213
-0.00004,-0.05328,-0.03030
0.02215,-0.01906,-0.03041
0.02197,0.01606,-0.03391
0.01027,0.01575,-0.06462
0.00855,0.01416,-0.01592
0.02119,-0.02198,-0.03078
0.01281,-0.00969,-0.02274
0.01134,-0.05050,-0.01528
-0.00149,-0.03576,-0.03185
0.02996,-0.06351,-0.03383
0.00598,-0.13290,-0.03283
0.00632,-0.01849,-0.03066
-0.02362,-0.05253,-0.03022
0.00369,0.02231,-0.04125
0.05477,0.03275,-0.01858
0.03885,0.01248,-0.03023
0.00319,-0.02710,-0.02252
-0.00321,-0.03579,-0.02595
0.06705,0.03209,-0.02871
0.00677,-0.05110,-0.03578
0.01128,-0.05689,-0.02812
0.03421,-0.01321,-0.01155
0.04743,0.00564,-0.05380
-0.00906,-0.01569,-0.04925
0.00911,-0.04507,-0.02890
-0.00526,-0.00979,-0.04419
-0.01324,-0.05004,-0.02539
0.03297,-0.06316,-0.01627
0.02597,-0.04844,-0.02271
0.04339,-0.03684,-0.00632
0.01171,-0.03608,-0.01792
0.00428,-0.01649,-0.05861
-0.00013,-0.02095,-0.01476
-0.01314,0.00830,-0.03155
-0.00499,-0.02441,-0.03698
0.00235,-0.01260,-0.02511
0.03751,0.02992,-0.03776
-0.02090,-0.04759,-0.04174
0.02125,-0.02185,-0.02026
0.01427,-0.03951,-0.02959
0.04103,-0.02848,-0.02596
0.02210,-0.00473,-0.03518
0.00567,-0.00143,-0.03884
0.00430,-0.01330,-0.04490
0.01639,0.00724,-0.03211
0.03811,-0.03996,-0.02119
0.01870,-0.01966,-0.04739
0.01098,-0.03932,-0.02499
-0.00905,-0.06356,-0.07102
0.00614,-0.02121,-0.01176
-0.00097,-0.01533,-0.01775
0.04516,-0.03473,-0.03656
0.01070,-0.03346,-0.02508
0.00451,-0.00953,-0.01449
0.00525,-0.02493,-0.03922
0.00002,-0.01530,-0.01521
0.02090,-0.04020,-0.04579
0.03212,-0.03920,-0.00090
0.01038,-0.01296,-0.02564
-0.00137,-0.02133,-0.02151
-0.00442,-0.00027,-0.00590
0.00447,-0.01583,-0.02888
-0.01351,-0.01847,-0.03477
0.00396,-0.01228,-0.00785
-0.00786,-0.00681,-0.03175
0.00898,-0.03930,-0.02485
0.00864,-0.04191,-0.01421
0.00728,-0.01962,-0.05551
0.01472,-0.03087,-0.03229
-0.00655,-0.00093,-0.02937
0.02574,0.00170,-0.01193
-0.00457,-0.00951,-0.02012
0.01385,0.00100,-0.04617
-0.00921,-0.03316,-0.03079
0.00468,-0.00163,-0.04371
0.00755,-0.05178,-0.05194
-0.00813,-0.03544,-0.00704
0.02702,-0.03707,-0.03341
0.00715,-0.03591,-0.01007
-0.00188,-0.01298,-0.03602
-0.00170,-0.00451,-0.04682
0.00034,-0.00369,-0.01672
-0.00940,-0.00681,-0.03136
-0.00743,-0.05036,-0.01461
0.04192,-0.01902,-0.00528
-0.01925,-0.05229,0.01057
-0.02028,-0.03860,-0.02395
-0.00335,-0.00668,-0.02146
0.00691,0.01339,-0.02844
0.00609,-0.01881,-0.02750
0.02079,-0.01327,-0.02671
0.01045,-0.03951,-0.03008
0.02376,-0.03138,-0.04237
-0.00377,-0.01516,-0.01052
-0.00656,-0.03293,-0.01893
0.00938,-0.04815,-0.02568
0.00656,-0.03388,-0.04152
0.00772,-0.01292,-0.02501
0.00370,-0.01315,-0.03639
-0.01040,-0.02145,-0.03052
0.01774,-0.03103,-0.03493
0.01399,-0.01016,-0.02576
-0.01286,-0.00640,-0.01870
0.00783,-0.02798,-0.03906
-0.00425,-0.01546,-0.02076
-0.00403,-0.00375,-0.02108
-0.00601,-0.01842,-0.02310
-0.01625,-0.03881,-0.02663
-0.00963,-0.03020,-0.02763
0.01013,-0.01637,-0.04095
0.01039,-0.00173,-0.04136
0.00389,0.00137,-0.04064
0.01809,-0.01357,-0.03932
-0.00846,-0.02987,-0.01454
0.00720,-0.01859,-0.01803
0.02729,-0.06267,-0.00615
0.00909,-0.01067,-0.04749
0.00800,-0.01902,-0.03261
0.00127,-0.02674,0.00015
0.01158,-0.00724,-0.02796
-0.00478,-0.00901,0.00051
0.02705,-0.01090,-0.04156
0.03986,-0.01620,-0.01129
0.00821,-0.04694,0.01716
0.00739,-0.01566,-0.01784
0.01845,-0.03096,-0.03199
0.01369,-0.02490,-0.02891
-0.03066,-0.04449,-0.03087
-0.00254,-0.02141,-0.02170
0.00446,-0.03283,-0.00511
0.00999,-0.03931,-0.02278
0.00399,-0.00927,-0.00167
0.01632,0.00165,-0.02066
-0.01009,-0.01292,-0.03818
-0.00390,-0.02509,-0.04919
-0.00021,0.00192,-0.02392
-0.00514,-0.03345,-0.03432
0.00796,-0.02177,-0.02570
0.02077,-0.02472,-0.01667
0.01831,-0.02228,-0.03625
0.01282,-0.01113,-0.06092
-0.00317,-0.03355,-0.03591
0.00007,-0.02703,-0.01004
-0.00693,-0.00713,-0.03739
0.02762,-0.01884,-0.01105
0.01451,-0.02146,-0.00931
-0.00160,-0.01272,-0.02334
0.01067,-0.04495,-0.01348
-0.00030,-0.02147,-0.02061
-0.00667,-0.01224,-0.00946
-0.01534,-0.03642,-0.04209
-0.01424,-0.02425,-0.02534
0.02104,-0.05160,-0.03436
-0.00858,-0.03335,-0.03236
0.00972,0.02249,-0.01359
0.01748,-0.03925,-0.01432
0.00292,-0.00136,-0.03323
-0.01303,0.00797,-0.02614
0.01745,-0.01394,-0.05320
0.00445,-0.01596,-0.03035
-0.01832,-0.01761,-0.00097
-0.00291,-0.01567,-0.02542
-0.00454,-0.01336,-0.04902
-0.00749,0.00151,-0.04371
-0.00719,-0.01941,-0.05775
0.00495,0.01654,-0.02055
0.01945,-0.02486,-0.02268
-0.00778,-0.00142,-0.04355
0.00960,-0.02741,-0.01602
0.00517,-0.00408,-0.02394
0.00763,-0.03944,-0.02864
0.01886,-0.00687,-0.00840
0.00861,-0.02785,-0.03298
-0.01789,-0.01217,-0.01543
0.01793,-0.00703,-0.01483
0.00193,-0.03062,-0.03200
0.00537,-0.02148,-0.01678
-0.02310,-0.02106,-0.02237
0.01148,0.00427,-0.03531
0.01252,-0.02441,-0.01093
-0.00644,-0.03550,-0.00162
-0.00897,-0.03569,-0.01052
-0.00098,-0.03373,-0.04066
-0.00965,-0.01828,-0.01744
-0.05086,-0.04612,0.00709
-0.07146,-0.02171,0.02775
0.01414,-0.02505,-0.03352
0.07301,-0.02679,-0.05587
0.09268,-0.03640,-0.07285
0.00632,0.01928,-0.02546
0.00864,-0.01607,-0.03018
0.00532,0.00116,-0.04598
-0.00004,-0.02739,-0.02072
0.01085,-0.03119,-0.04588
-0.00599,-0.01035,-0.04538
0.00913,-0.03066,-0.02706
-0.00796,-0.03005,-0.01547
0.00311,-0.01947,-0.05156
-0.00253,-0.02449,-0.02286
0.00659,-0.00421,-0.02587
-0.00842,-0.02420,-0.01541
0.00381,0.00412,-0.04550
-0.00062,-0.02164,-0.02441
-0.00358,-0.00652,-0.00848
0.03502,-0.00226,-0.04553
-0.00283,-0.03631,-0.02635
0.00133,-0.02758,-0.02577
0.00552,-0.01591,-0.02526
-0.00524,-0.02452,-0.02491
0.02395,-0.03347,-0.01277
0.00192,-0.02476,-0.02981
0.00875,0.00705,-0.04206
-0.03250,-0.00008,-0.00323
0.00185,-0.01597,-0.02997
-0.00049,-0.01270,-0.01781
0.00094,-0.00734,-0.03663
-0.00614,-0.03943,-0.03490
0.02106,-0.01900,-0.02187
0.02018,-0.01329,-0.02849
0.01116,-0.01602,-0.02586
0.00854,-0.03031,-0.01327
0.00270,-0.02472,-0.02715
0.02606,-0.03950,-0.01807
0.00854,0.00696,-0.04588
0.00169,-0.02460,-0.02304
0.00444,0.00461,-0.02543
0.01904,0.00175,-0.01413
0.00304,-0.01045,-0.04207
-0.00143,-0.04502,-0.02082
0.01480,-0.03932,-0.01787
0.00330,-0.03053,-0.02449
0.00100,-0.01262,-0.01275
0.00348,-0.03916,-0.01782
-0.00748,-0.03343,-0.02844
-0.01128,-0.05082,-0.02226
-0.01863,-0.01546,-0.01816
0.01859,-0.02820,-0.04015
0.01711,0.01303,-0.03301
